force_0,force_1,force_2,force_3,rt,rt_threshold,target_finger,selected_finger,score,trial,run
0.0281659641309,0.157064273882,0.301271129744,0.277734105118,0.7,0.45,0,-1,0,1,0
0.342358576553,0.301167991111,0.38041015009,0.464634780287,0.7,0.45,1,-1,0,2,0
0.284423204376,0.432949922116,0.367913121673,0.462674829185,0.7,0.45,3,-1,0,3,0
0.385268558499,1.14728424041,0.387019191143,0.472504246533,0.224,0.45,2,1,-1,3,0
0.00262117138734,1.08291153688,0.307448711814,0.414678610131,0.142,0.45,1,1,2,4,0
1.09726207447,0.230020268088,0.284860263149,0.270895064235,0.179,0.45,2,0,-1,5,0
0.0780180408855,0.136613998721,0.63224004174,1.0548805426,0.329,0.45,3,3,2,6,0
1.01569479509,0.270241093277,0.300271816232,0.497075523741,0.339,0.45,0,0,2,7,0
-0.00938338651407,0.0708717141071,1.06089695811,0.498141459915,0.316,0.45,3,2,-1,8,0
0.138794558631,1.03587010068,0.22796525771,0.457052677448,0.3,0.45,1,1,2,9,0
1.14799502119,0.16211352769,0.359329423278,0.454555649263,0.327,0.45,0,0,2,10,0
0.0379243097056,0.107308833378,1.00612673785,0.409543867432,0.28,0.45,2,2,2,11,0
1.23741543845,0.618862654367,0.238200822638,0.395645740111,0.358,0.45,0,0,2,12,0
-0.0733092277481,1.03783960094,0.458684599697,0.313268833284,0.37,0.45,1,1,2,13,0
-0.0403250475142,0.0766886152152,0.277465556097,1.08881137268,0.326,0.45,3,3,2,14,0
-0.00269368701508,0.0621995778965,1.04510867476,0.45664847551,0.337,0.45,2,2,2,15,0
-0.0485586785084,0.0981114540258,0.412520345803,1.03326666138,0.405,0.45,3,3,2,16,0
1.14741190126,0.21808943759,0.161752742611,0.371268628041,0.363,0.45,1,0,-1,17,0
-0.0482197701854,1.16353268185,0.220522440915,0.391761011832,0.324,0.45,2,1,-1,18,0
0.21416308878,1.14306377805,0.183176256197,0.437585186933,0.366,0.45,1,1,2,19,0
1.25037722761,0.173023260494,0.206335223566,0.442483383167,0.354,0.45,0,0,2,20,0
-0.077059238426,0.0879252966733,1.02523258125,0.386788931576,0.324,0.45,2,2,2,21,0
1.02601570867,0.28964965216,0.193501650331,0.477117623608,0.389,0.45,0,0,2,22,0
-0.0837120536899,0.0652366958564,0.309938429695,1.08994381788,0.386,0.45,3,3,2,23,0
1.08554576134,0.185748148558,0.166527781487,0.367915199385,0.433,0.45,0,0,2,24,0
0.106380246322,1.04822951064,0.242403128721,0.416563393368,0.426,0.45,1,1,2,25,0
-0.0847813260274,0.101096264983,1.00640956614,0.394955139549,0.321,0.45,2,2,2,26,0
-0.0513717519483,0.0434103001754,0.214118608642,1.05476299387,0.323,0.45,3,3,2,27,0
0.0676142912844,1.04823520963,0.152120333656,0.350811534267,0.415,0.45,1,1,2,28,0
-0.0461355063288,0.060561837038,0.233797546124,1.05328159058,0.364,0.45,3,3,2,29,0
0.0102051553569,1.00682339699,0.146921717528,0.408932862343,0.379,0.45,2,1,-1,30,0
0.206016444475,1.04007267309,0.199312177403,0.404466768108,0.384,0.45,1,1,2,31,0
1.03794193665,0.189594815505,0.228255434124,0.452193844658,0.339,0.45,0,0,2,32,0
-0.0936435411816,0.0660213442788,0.207689235837,1.13804910464,0.311,0.45,3,3,2,33,0
1.01215512361,0.10999938928,0.290695618116,0.45580036802,0.418,0.45,0,0,2,34,0
0.0169633608565,0.117391478176,1.02809333135,0.453623659805,0.366,0.45,2,2,2,35,0
1.05597179622,0.174733687875,0.209805584419,0.498193080663,0.39,0.45,0,0,2,36,0
-0.0519423384851,0.0469561754167,0.647666179168,1.13048225461,0.383,0.45,3,3,2,37,0
0.00246855828662,0.0874959278397,1.07043491219,0.465171424997,0.363,0.45,2,2,2,38,0
-0.00506233780375,1.06185355285,0.220571388597,0.469407542138,0.31,0.45,1,1,2,39,0
0.0266142643209,0.133953259616,0.27022257681,1.14936216445,0.343,0.45,3,3,2,40,0
0.0859554866258,1.00635483047,0.133092648264,0.427098568457,0.356,0.45,1,1,2,41,0
-0.0254084069942,0.0872650591939,1.04627256037,0.396474675575,0.345,0.45,2,2,2,42,0
1.0712761452,0.1722613263,0.234364765897,0.474241071516,0.369,0.45,0,0,2,43,0
-0.0223959004561,1.02484837081,0.246666604806,0.457943835428,0.343,0.45,1,1,2,44,0
1.05770515572,0.14988953423,0.269292415029,0.53086361424,0.423,0.45,0,0,2,45,0
-0.0268547258175,0.0516565066637,1.00765457233,0.540142673745,0.399,0.45,2,2,2,46,0
0.0678889778395,0.127395979717,0.203544860467,1.09432715159,0.362,0.45,3,3,2,47,0
1.02017430887,0.228990486113,0.137330864652,0.37272856887,0.383,0.45,0,0,2,48,0
0.0627861148547,0.145794165016,1.03784210978,0.513561955088,0.348,0.45,2,2,2,49,0
0.0851658416589,0.12041473809,0.233511255588,1.17891529845,0.393,0.45,3,3,2,50,0
0.168969252356,1.01779780241,0.158833829669,0.360477637862,0.363,0.45,1,1,2,51,0
0.0995470063287,0.096588733527,0.199553874267,1.01233507493,0.342,0.45,3,3,2,52,0
0.0410603742898,0.186910757785,1.00073721079,0.52758557993,0.415,0.45,2,2,2,53,0
0.0126121746517,1.09823981383,0.211352612987,0.47489164814,0.399,0.45,1,1,2,54,0
-0.0549990350138,0.1469562343,1.04811866548,0.476847362213,0.409,0.45,2,2,2,55,0
1.11113154594,0.148589148084,0.289373525374,0.57024635305,0.355,0.45,0,0,2,56,0
0.0169092376799,1.03825666527,0.287829844504,0.546433837152,0.356,0.45,1,1,2,57,0
1.09647020558,0.158688400342,0.221335046009,0.572521806375,0.404,0.45,0,0,2,58,0
0.0427709316417,0.119763045775,0.222244047965,1.12760136997,0.379,0.45,3,3,2,59,0
1.07410771972,0.257214090142,0.101794063552,0.305379203485,0.383,0.45,0,0,2,60,0
0.0789008803087,0.106010118828,0.227018673744,1.15608301935,0.368,0.45,3,3,2,61,0
0.338009331374,1.04352718032,0.14357518712,0.391475400615,0.343,0.45,1,1,2,62,0
0.165542738453,0.150872382708,1.07173556758,0.531259109262,0.325,0.45,2,2,2,63,0
0.162128118802,1.04269333554,0.341144778512,0.381886018914,0.418,0.45,1,1,2,64,0
0.341615490974,0.0936933425259,0.182167640842,1.0956995905,0.352,0.45,3,3,2,65,0
0.0661806226016,0.0940288361786,0.307410992145,1.15119904818,0.378,0.45,2,3,-1,66,0
1.0437844546,0.302660569776,0.271664540589,0.454766762284,0.382,0.45,0,0,2,67,0
0.0207259667162,0.101721145795,1.02737301188,0.458165806328,0.281,0.45,2,2,2,68,0
0.101006797541,0.167438433609,0.139330872791,1.07717571424,0.362,0.45,3,3,2,69,0
1.05338146999,0.250071125357,0.11142840645,0.347359576309,0.387,0.45,0,0,2,70,0
-0.00985637011856,1.08279982683,0.179889721638,0.455084682879,0.396,0.45,1,1,2,71,0
1.04705420468,0.102373939471,0.24488153883,0.455619975536,0.403,0.45,0,0,2,72,0
-0.027206427763,0.0877781838622,1.1115247496,0.446739915555,0.384,0.45,2,2,2,73,0
0.122267234113,1.01719398577,0.17107908188,0.410396590671,0.368,0.45,1,1,2,74,0
0.0744844332715,0.0424152477505,0.172698496858,1.03759078464,0.322,0.45,3,3,2,75,0
0.0167724990219,0.0650107396952,1.02024560017,0.425422770687,0.419,0.45,2,2,2,76,0
0.0455390371735,0.0526313730154,0.20630751905,1.08162154695,0.421,0.45,3,3,2,77,0
0.0445265278989,1.03342963804,0.097243296704,0.367855906408,0.419,0.45,1,1,2,78,0
0.00344793396762,0.0920034442165,1.03666046247,0.513239140545,0.383,0.45,2,2,2,79,0
1.04792205596,0.300831787153,0.265519165657,0.500124261243,0.435,0.45,0,0,2,80,0
0.012637377928,1.09125029733,0.215068564425,0.43093719218,0.435,0.45,1,1,2,81,0
1.0047771419,0.0774228201644,0.186407529552,0.525298628858,0.459,0.45,0,0,1,82,0
-0.036363736122,0.118602540156,0.198258660199,1.0978269602,0.383,0.45,3,3,2,83,0
1.06615489742,0.270079333083,0.098633011846,0.394525696072,0.399,0.45,0,0,2,84,0
-0.0815346731,0.0795268434532,1.02760028456,0.449704132321,0.354,0.45,2,2,2,85,0
-0.0800012180547,1.12719458545,0.14869268163,0.348410134059,0.299,0.45,1,1,2,86,0
-0.0783175003904,0.0591434990472,1.00902190857,0.444730625161,0.327,0.45,3,2,-1,87,0
0.0430701469532,1.0361702334,0.553947269762,0.122349126824,0.448,0.45,1,1,2,88,0
-0.0722381057688,0.0442961886149,1.04748648697,0.369214028546,0.329,0.45,2,2,2,89,0
-0.0791751634229,0.037941077163,0.0475217899877,1.12186693373,0.369,0.45,3,3,2,90,0
-0.0716810476365,0.170733509997,1.02315708571,0.399947840219,0.364,0.45,2,2,2,91,0
1.01673404772,0.233886406976,0.166083160834,0.501101685727,0.372,0.45,0,0,2,92,0
-0.0609492233069,1.05738134329,0.18726595719,0.436930631523,0.325,0.45,1,1,2,93,0
1.0915561819,0.115623202389,0.228640218613,0.419555258702,0.425,0.45,0,0,2,94,0
-0.0554613320622,0.0630747654725,0.184144770166,1.06008771474,0.351,0.45,3,3,2,95,0
1.12961139266,0.143795071606,0.107198304614,0.336764820524,0.355,0.45,0,0,2,96,0
0.718748959637,1.03384771394,0.124194460398,0.347635441544,0.398,0.45,1,1,2,97,0
-0.0909653686209,0.121441405771,1.18300328238,0.493161506024,0.364,0.45,2,2,2,98,0
-0.0789154989662,0.045821788659,0.126224907137,1.01577026998,0.363,0.45,3,3,2,99,0
0.0157282778178,0.0818710530476,1.04686764187,0.53273497569,0.46,0.45,2,2,1,100,0
-0.0469200018408,1.0000249328,0.126867695412,0.358449229239,0.382,0.45,1,1,2,101,0
0.0472490251598,0.078651184422,0.1824660396,1.09685676867,0.347,0.45,3,3,2,102,0
0.113865421495,1.09445074695,0.116396487291,0.277589201516,0.356,0.45,1,1,2,103,0
1.12449821209,0.0869671949555,0.143274549591,0.523159352483,0.347,0.45,0,0,2,104,0
-0.0705379771223,0.0345387430112,1.01320249528,0.598136355135,0.321,0.45,2,2,2,105,0
-0.0710465375535,1.08846965852,0.117285049895,0.379053899568,0.313,0.45,0,1,-1,106,0
-0.0604610272692,-0.0121567313856,1.06784725227,0.393878893543,0.29,0.45,3,2,-1,107,0
1.06660266719,0.00185356672503,0.0545202348535,0.448645644811,0.282,0.45,0,0,2,108,0
-0.0937825600807,1.10034076699,0.521738341414,0.549351235683,0.405,0.45,1,1,2,109,0
-0.0937545303626,0.00284836178105,1.22552559729,0.479175731564,0.265,0.45,2,2,2,110,0
-0.0937505403257,0.00252006999185,0.100920484965,1.2172699483,0.247,0.45,3,3,2,111,0
-0.0937500460096,0.0881914645291,1.2840673697,0.421094233974,0.34,0.45,2,2,2,112,0
-0.0937500064801,1.0286334897,0.15370297221,0.396884775474,0.271,0.45,1,1,2,113,0
-0.0750310952837,0.0600609874158,0.166925458063,1.15836003261,0.348,0.45,3,3,2,114,0
1.03066492134,0.0428049573464,0.127175208596,0.440198718342,0.343,0.45,0,0,2,115,0
-0.0756299221071,0.0345064582534,1.01325595092,0.50247449043,0.307,0.45,3,2,-1,116,0
0.154365204606,1.04397568561,0.0728826697362,0.481428573531,0.362,0.45,1,1,2,117,0
1.12897600985,0.0613741124572,0.175681997887,0.585360303767,0.34,0.45,0,0,2,118,0
-0.06280641346,0.0100725099595,0.0790241912414,1.10086986133,0.289,0.45,2,3,-1,119,0
1.06909044519,-0.0045571406442,0.0503837779126,0.718764898305,0.354,0.45,0,0,2,120,0
-0.093739178269,0.0245904138394,1.04540362435,0.465297120941,0.318,0.45,2,2,2,121,0
-0.0937495464867,1.06580906533,0.260414672739,0.459197339381,0.396,0.45,1,1,2,122,0
-0.0937499405318,0.0941663805725,0.262308922465,1.14348686277,0.348,0.45,3,3,2,123,0
-0.0847159838148,1.06075085106,0.278666168665,0.36067721898,0.401,0.45,1,1,2,124,0
-0.0841836458205,0.0853536288203,1.0180103375,0.447347713025,0.352,0.45,2,2,2,125,0
-0.0998282578616,0.0421738437363,0.118285498711,1.05028813563,0.33,0.45,3,3,2,126,0
1.02436878491,0.248780729156,0.0754879396765,0.513360704458,0.425,0.45,0,0,2,127,0
-0.0546737714813,0.0407383675638,0.735640441786,1.13628352831,0.427,0.45,3,3,2,128,0
-0.0454793666686,0.00904532296771,1.06422321746,0.511475106776,0.458,0.45,2,2,1,129,0
1.23521334718,0.0625607216522,0.153897007191,0.540691131899,0.38,0.45,0,0,2,130,0
-0.0743204927341,1.05047939819,0.17293274986,0.450159041981,0.279,0.45,1,1,2,131,0
1.22280370319,0.0238200860538,0.249751689029,0.717688253781,0.392,0.45,0,0,2,132,0
-0.0703160317808,0.0445388134919,1.01062618715,0.447604245941,0.357,0.45,2,2,2,133,0
-0.0703126448101,1.06798318077,0.183228709032,0.362765746677,0.434,0.45,1,1,2,134,0
-0.0703125119837,0.0704260396097,0.138474662913,1.03300517831,0.534,0.45,3,3,1,135,0
-0.0703125012217,1.05897593658,0.0627310828843,0.353343570515,0.569,0.45,1,1,1,136,0
-0.069110256917,0.020584906814,1.06722543786,0.519326234041,0.391,0.45,2,2,2,137,0
-0.0701835042959,0.0525803844089,0.687596071246,1.0296208648,0.408,0.45,3,3,2,138,0
1.09861470139,0.0366850580866,0.0379139951995,0.441918687967,0.313,0.45,0,0,2,139,0
-0.0781343384646,1.08225365928,0.228880479881,0.528011941988,0.379,0.45,1,1,2,140,0
1.10379859842,0.322158404258,0.0882026874106,0.457219288873,0.421,0.45,0,0,2,141,0
-0.0624511432338,0.029878987929,0.375170988863,1.01954339954,0.332,0.45,3,3,2,142,0
-0.0527971923916,0.0523770040036,1.1359608624,0.662539450966,0.394,0.45,2,2,2,143,0
1.19022173772,0.0876696312035,0.238446498466,0.558911304083,0.362,0.45,0,0,2,144,0
-0.0773979265483,0.0418640820417,0.412216389196,1.04035859895,0.357,0.45,3,3,2,145,0
-0.0094002172825,1.02462243003,0.127653085137,0.46013023785,0.333,0.45,1,1,2,146,0
-0.0777108674196,0.0265859802445,1.06435572728,0.547420590138,0.251,0.45,2,2,2,147,0
-0.0659110464332,0.0587604226292,0.233065449075,1.0711644972,0.335,0.45,3,3,2,148,0
-0.0678906407077,0.0238043482938,1.09157814424,0.344984777016,0.344,0.45,2,2,2,149,0
-0.0692223001468,1.10322704253,0.107499673053,0.302773315939,0.315,0.45,1,1,2,150,0
1.26337154307,0.0647962758383,0.150196964167,0.451846672238,0.327,0.45,0,0,2,151,0
-0.039063184108,0.0255881247166,1.1079672084,0.347737329961,0.298,0.45,2,2,2,152,0
1.27082130322,0.116063791829,0.124751499565,0.490011971571,0.335,0.45,0,0,2,153,0
-0.0602411626159,1.22864463967,0.102091428538,0.315314927196,0.312,0.45,1,1,2,154,0
-0.0535316735815,0.040516431436,0.175130688578,1.08370527543,0.301,0.45,3,3,2,155,0
1.21332418224,0.210753266844,0.133469803981,0.477727383937,0.379,0.45,0,0,2,156,0
-0.0536018457826,0.0888563390087,1.04021056672,0.463387517668,0.316,0.45,2,2,2,157,0
-0.0546508340982,0.0202273415854,0.0268215055799,1.03753301155,0.398,0.45,3,3,2,158,0
-0.0546825172063,1.19495443937,0.202493289253,0.605766239687,0.338,0.45,1,1,2,159,0
-0.0519865050499,0.0322589781741,0.557435433449,1.25711262498,0.351,0.45,3,3,2,160,0
-0.0443287285573,0.0249726435267,1.04239003936,0.574919479138,0.3,0.45,2,2,2,161,0
-0.050027709842,1.0330850625,0.269256145992,0.397987926467,0.319,0.45,1,1,2,162,0
-0.0530585837475,0.0680332131693,0.614807392966,1.03343295775,0.391,0.45,2,3,-1,163,0
1.16951804763,-0.00328160642786,0.24752746768,0.34304503206,0.363,0.45,0,0,2,164,0
-0.0594000683106,0.0217176670362,0.548603034212,1.08482040509,0.309,0.45,3,3,2,165,0
1.12456750141,0.221406027398,0.0498712575712,0.494020699362,0.351,0.45,0,0,2,166,0
-0.0702082620366,1.16924196807,0.134962442025,0.415787833342,0.287,0.45,1,1,2,167,0
1.15394727772,0.0634069013035,0.141882143878,0.32061551794,0.378,0.45,0,0,2,168,0
-0.0781221640009,0.128036069514,1.08781327927,0.345973620782,0.349,0.45,2,2,2,169,0
-0.0781248321504,0.0228491329418,0.574449886707,1.0515030855,0.364,0.45,3,3,2,170,0
-0.0286997055045,1.02473776547,0.0474437161159,0.548953199773,0.376,0.45,1,1,2,171,0
-0.0650956345418,0.00251554106409,0.0197582787534,1.20543212963,0.357,0.45,3,3,2,172,0
-0.064948993702,0.0383096579719,1.10514346046,0.606812784159,0.354,0.45,2,2,2,173,0
-0.0580079648567,1.08201300208,0.186202800676,0.43496303133,0.334,0.45,1,1,2,174,0
-0.0677262242733,0.0228772726248,0.208082436417,1.04671662613,0.343,0.45,2,3,-1,175,0
1.17368326782,-0.00422357513106,0.23373713732,0.220800943939,0.334,0.45,0,0,2,176,0
-0.0895285225941,0.0611660468576,0.0935105701897,1.05467951492,0.378,0.45,3,3,2,177,0
1.19675206255,0.0500839649295,0.159974202941,0.332285160691,0.382,0.45,0,0,2,178,0
0.0616541013067,1.10528838159,0.177099010706,0.22343266535,0.324,0.45,1,1,2,179,0
1.01592882209,0.155473172144,0.185289660507,0.412977342578,0.38,0.45,0,0,2,180,0
-0.0427283046052,1.25470600626,0.236400209054,0.377575207853,0.336,0.45,1,1,2,181,0
-0.0673859075413,0.0451854205402,1.08642308096,0.558226637969,0.291,0.45,3,2,-1,182,0
-0.0654129400846,0.101013108895,1.18516344733,0.427744114226,0.31,0.45,2,2,2,183,0
-0.0519822419299,0.0615745547727,0.069891215595,1.13330150491,0.375,0.45,3,3,2,184,0
-0.0513716952272,1.08375876224,0.156890715626,0.263506635213,0.347,0.45,1,1,2,185,0
-0.0646857677702,0.0630042494695,1.08069364626,0.374155446999,0.299,0.45,2,2,2,186,0
1.05363420492,0.0807374038131,0.220834181875,0.364231669744,0.331,0.45,1,0,-1,187,0
1.36178117095,0.157667198393,0.272201776382,0.459481336331,0.359,0.45,0,0,2,188,0
-0.0781283141258,0.0568545206994,0.517122740909,1.17613602173,0.324,0.45,3,3,2,189,0
1.01791236441,0.283556514337,0.143376320892,0.376988194468,0.385,0.45,0,0,2,190,0
-0.101558690055,0.0456484679467,0.301281038163,1.00267733952,0.338,0.45,2,3,-1,191,0
1.13028110677,0.0345703987172,0.27647423627,0.317199786143,0.403,0.45,0,0,2,192,0
0.126193154373,1.02150417384,0.311089686276,0.292921813447,0.294,0.45,1,1,2,193,0
-0.0263630858121,0.0828119501364,1.12588032777,0.423519812409,0.324,0.45,2,2,2,194,0
-0.0982859371428,0.223500862796,0.195212050738,1.15489253787,0.273,0.45,3,3,2,195,0
-0.101239453979,0.677627151594,1.16787143042,0.213412511257,0.312,0.45,2,2,2,196,0
-0.101189688998,1.0048842212,0.28484425239,0.397469185394,0.274,0.45,1,1,2,197,0
0.510230506032,0.030679129161,0.464308207858,1.10504619114,0.406,0.45,3,3,2,198,0
1.31742504943,0.122661565821,0.23178939331,0.403243370641,0.311,0.45,1,0,-1,199,0
1.10741225638,0.206001334517,0.214361490514,0.394134418675,0.343,0.45,0,0,2,200,0
-0.0926004872395,0.104381583774,0.237101820317,1.12443463136,0.356,0.45,3,3,2,201,0
1.00810959777,0.321505221962,0.230765264374,0.479709851382,0.393,0.45,0,0,2,202,0
-0.0207592408185,0.121473774586,1.03119897299,0.420291140079,0.284,0.45,2,2,2,203,0
1.18569776816,0.416074643349,0.226855781815,0.334526658257,0.372,0.45,0,0,2,204,0
1.20324722179,0.110490314956,0.380089775225,0.516692157281,0.319,0.45,1,0,-1,205,0
-0.109274051657,0.0428201177102,1.01254211586,0.392364563319,0.284,0.45,2,2,2,206,0
-0.109368397287,0.136489228108,0.187178561039,1.18410866269,0.378,0.45,3,3,2,207,0
-0.109374100448,0.167040631213,1.12385675995,0.271364817357,0.319,0.45,1,2,-1,208,0
-0.109374918253,0.0377568784961,0.855248496778,1.01603155657,0.391,0.45,3,3,2,209,0
-0.109374988125,0.0904698155428,1.08643223369,0.482410764903,0.312,0.45,2,2,2,210,0
-0.108060035015,1.30743773952,0.200493330089,0.384705988575,0.256,0.45,1,1,2,211,0
1.10935005884,0.200936578472,0.277200765739,0.453318160317,0.289,0.45,0,0,2,212,0
-0.109372165547,0.0430137727925,1.02599154728,0.892828466384,0.493,0.45,2,2,1,213,0
1.10203923862,0.0194780614981,0.171048046965,0.263998699233,0.384,0.45,0,0,2,214,0
-0.0875790564561,0.0712077393213,0.393616022622,1.15003539741,0.341,0.45,3,3,2,215,0
1.07008728484,0.200975152568,0.162790226663,0.311084066627,0.379,0.45,0,0,2,216,0
-0.0189360142313,0.0669332464051,1.10033356159,0.22892250593,0.47,0.45,2,2,1,217,1
0.0335242128465,0.0526909638754,0.548727475475,1.15240363279,0.383,0.45,3,3,2,218,1
1.28921232924,0.0514553109459,0.0713782275853,0.298686801198,0.4,0.45,0,0,2,219,1
0.0440823762861,1.26099968612,0.172986830775,0.207843881808,0.358,0.45,1,1,2,220,1
-0.027265776948,0.0090965268565,1.08291717925,0.451151050711,0.298,0.45,3,2,-1,221,1
1.17331987859,0.262733956778,0.241348195253,0.636139534249,0.264,0.45,1,0,-1,222,1
1.05726462921,0.257935351874,0.278530283,0.626070422998,0.338,0.45,0,0,2,223,1
0.0518543563392,0.0748790798055,1.03881394414,0.478098374821,0.304,0.45,3,2,-1,224,1
0.0324332983001,0.0670814437747,1.03538810361,0.85516957995,0.41,0.45,2,2,2,225,1
-0.030163433818,1.17158388834,0.249032228691,0.206499912238,0.31,0.45,1,1,2,226,1
-0.0226464298394,0.130924610884,1.19075242402,0.335193023608,0.314,0.45,2,2,2,227,1
1.1491527283,0.252087194275,0.28668955492,0.46116842378,0.307,0.45,0,0,2,228,1
0.0163846580256,0.160657376203,0.230427104413,1.28204703288,0.294,0.45,2,3,-1,229,1
0.0121143724617,1.06156764383,0.277702232702,0.429873302725,0.397,0.45,0,1,-1,230,1
0.048003972504,0.0679771525952,0.252655743769,1.1249010122,0.427,0.45,3,3,2,231,1
0.00250015916653,1.18655207732,0.219064472058,0.331714976564,0.378,0.45,1,1,2,232,1
-0.0394762144955,0.0214590039099,0.183399782049,1.03617645538,0.328,0.45,3,3,2,233,1
1.15028699861,0.32229590157,0.196993471251,0.411976975802,0.336,0.45,0,0,2,234,1
0.120101944874,1.19422405217,0.224057069403,0.427628614698,0.307,0.45,1,1,2,235,1
1.22541484058,0.070665931132,0.455778692935,0.400795283894,0.357,0.45,0,0,2,236,1
-0.0409795878854,0.0611916072758,1.12779139746,0.309420601309,0.275,0.45,2,2,2,237,1
-0.0460805366797,0.0643636926121,0.164692213994,1.20180154471,0.363,0.45,3,3,2,238,1
0.0082453271472,0.112794152146,0.186247579757,1.11554519974,0.371,0.45,2,3,-1,239,1
-0.0439390514977,1.03635239234,0.308093220337,0.285631749105,0.337,0.45,1,1,2,240,1
-0.0399886067874,0.0437443732125,1.20500525775,0.199414476635,0.305,0.45,2,2,2,241,1
-0.0129046383343,0.159327031239,0.312695123525,1.18566482531,0.344,0.45,3,3,2,242,1
-0.0383812378125,1.01314809532,0.11949909101,0.226473012235,0.357,0.45,1,1,2,243,1
1.24420135247,0.157172510301,0.26147613362,0.35432028573,0.446,0.45,0,0,2,244,1
0.109487640329,1.06408875212,0.243331220457,0.240067008442,0.405,0.45,1,1,2,245,1
-0.0514599324574,0.052989210118,0.20662507115,1.14645579033,0.352,0.45,3,3,2,246,1
1.12696988377,0.317227587219,0.288810354422,0.395897840536,0.367,0.45,0,0,2,247,1
0.0154929046393,0.144692470469,0.352930153231,1.04756855165,0.361,0.45,3,3,2,248,1
0.0565297501859,0.637873124704,1.13481097688,0.391867899654,0.336,0.45,2,2,2,249,1
-0.0164067927458,1.22170094972,0.153637717657,0.338526833941,0.271,0.45,1,1,2,250,1
-0.0161817734913,0.0686268560375,1.1057579748,0.367008247123,0.36,0.45,2,2,2,251,1
1.17244235672,0.129221401181,0.245954650375,0.470896156382,0.403,0.45,0,0,2,252,1
-0.0358957143656,0.0847849886532,1.10875341767,0.256202699995,0.302,0.45,2,2,2,253,1
1.25583241557,0.539179075548,0.244869267198,0.282136937828,0.392,0.45,0,0,2,254,1
-0.0318677111504,0.0519757108228,1.05500934274,0.312434884655,0.302,0.45,3,2,-1,255,1
-0.0159990803248,1.02347148734,0.142973144174,0.386611471266,0.274,0.45,1,1,2,256,1
-0.0270072588729,0.0724340534894,0.153927276303,1.00578403169,0.311,0.45,3,3,2,257,1
1.20908743063,0.0768307276502,0.106701287568,0.441556717188,0.346,0.45,0,0,2,258,1
-0.0475048953023,1.13352982385,0.30468481143,0.370931884656,0.402,0.45,1,1,2,259,1
1.18648122129,0.265132815198,0.0953770119541,0.498745329409,0.431,0.45,0,0,2,260,1
-0.0587476635663,0.0411673985855,1.15237137723,1.0012542897,0.39,0.45,2,2,2,261,1
-0.054386309291,1.07289860413,0.471379624657,0.214112146892,0.373,0.45,1,1,2,262,1
-0.0463357934618,0.0498550153818,1.06007565782,0.273312571693,0.394,0.45,2,2,2,263,1
-0.048991055404,0.0266597949433,0.039067985165,1.06453469166,0.397,0.45,3,3,2,264,1
-0.0521473258564,0.431061743539,1.27110163151,0.322942969228,0.426,0.45,2,2,2,265,1
-0.0467131762373,1.05339739113,0.247368586234,0.321392040645,0.325,0.45,1,1,2,266,1
-0.047406313948,0.0484180540741,1.00453625642,0.238737300754,0.327,0.45,3,2,-1,267,1
-0.0491268703234,1.00362480936,0.0291563190727,0.342428921096,0.342,0.45,0,1,-1,268,1
-0.0742447236282,1.01963162415,0.113621093409,0.378220914455,0.312,0.45,1,1,2,269,1
-0.0680599692824,1.04105434688,0.149537115745,0.378939885189,0.408,0.45,0,1,-1,270,1
-0.0637659919398,0.0368786416562,1.05197954586,0.238489004758,0.323,0.45,3,2,-1,271,1
-0.0458226545567,1.00453161685,0.0416692214979,0.194321548208,0.262,0.45,1,1,2,272,1
-0.0558647415995,0.0697631611182,0.604827704938,1.06821008516,0.345,0.45,2,3,-1,273,1
1.87146611561,0.854082545649,0.287537420579,0.230160109603,0.341,0.45,0,0,2,274,1
-0.0330910317719,0.058265431795,1.00995436699,0.165906974174,0.291,0.45,2,2,2,275,1
-0.0246521225642,0.175960584132,0.131828146535,1.08043386699,0.343,0.45,3,3,2,276,1
-0.0207051178839,0.154104078458,1.109165798,0.247204778883,0.396,0.45,2,2,2,277,1
1.0923348588,0.147669219963,0.316089757226,0.314292672311,0.388,0.45,0,0,2,278,1
-0.0591635546993,1.11689190017,0.107347387083,0.098607396016,0.371,0.45,1,1,2,279,1
-0.0688587649632,0.0530401295065,1.05343109284,0.413130684694,0.398,0.45,3,2,-1,280,1
-0.0125836618116,1.00371591856,0.122858262696,0.265902798793,0.337,0.45,1,1,2,281,1
1.10378658333,0.127347096423,0.111402745415,0.384041290365,0.273,0.45,0,0,2,282,1
-0.0275565893799,0.062180405587,0.409117407814,1.13445424848,0.351,0.45,3,3,2,283,1
1.15562934506,0.179633015303,0.0930855640869,0.442626039628,0.363,0.45,0,0,2,284,1
-0.0183715343519,0.103463396538,1.11742236374,0.402606999533,0.342,0.45,2,2,2,285,1
-0.0422774927288,0.143216644511,0.223709270113,1.0198710217,0.379,0.45,3,3,2,286,1
-0.041063909529,0.104004925771,1.00101129481,0.332590685674,0.415,0.45,2,2,2,287,1
-0.0436163063853,1.02180869387,0.230408391824,0.303127194315,0.324,0.45,1,1,2,288,1
-0.0458340504229,0.0342199788767,0.646316421139,1.00665168994,0.385,0.45,2,3,-1,289,1
-0.040260639065,0.0185619829641,0.244965964337,1.07496746224,0.495,0.45,3,3,1,290,1
1.15417525056,0.0181922165532,0.0991638371923,0.583427640572,0.394,0.45,0,0,2,291,1
-0.0256543266406,1.13214130288,0.196937197772,0.390493415182,0.307,0.45,1,1,2,292,1
1.09876284449,0.136358465909,0.254289264248,0.399900882893,0.374,0.45,0,0,2,293,1
-0.0498747102536,0.0682418551312,0.134757389802,1.19736518124,0.368,0.45,3,3,2,294,1
-0.0256641066015,1.16550447097,0.13555048045,0.295117119572,0.287,0.45,1,1,2,295,1
-0.0415445544853,0.0307459554159,0.392151530089,1.34012510997,0.331,0.45,3,3,2,296,1
-0.0353813412258,0.2698639737,1.1342299624,0.397824176728,0.341,0.45,2,2,2,297,1
0.809967591979,1.04575487422,0.196161015417,0.281151874665,0.355,0.45,1,1,2,298,1
-0.0423216281813,0.0472229123768,1.12078279399,0.348028968463,0.336,0.45,2,2,2,299,1
1.13018048705,0.0257145510061,0.267229291861,0.416093591349,0.315,0.45,0,0,2,300,1
-0.0819697875471,1.11767743042,0.294569560095,0.229981578849,0.289,0.45,2,1,-1,301,1
1.35396192733,0.0433209427584,0.297831951323,0.376562316501,0.356,0.45,1,0,-1,302,1
-0.0603403722421,0.0848673079929,1.02338867705,0.768942673502,0.385,0.45,3,2,-1,303,1
1.2644748187,0.162110666842,0.195184874179,0.553562297368,0.413,0.45,0,0,2,304,1
-0.0304822972046,1.21088143213,0.0920064476052,0.244647989926,0.328,0.45,1,1,2,305,1
1.31696470648,0.0220222939708,0.103414044603,0.298190634561,0.402,0.45,0,0,2,306,1
-0.0842540687501,0.0722146284923,0.0890209495644,1.33168324998,0.365,0.45,3,3,2,307,1
-0.0706831270751,1.10279737894,0.144742257319,0.488948299982,0.398,0.45,1,1,2,308,1
-0.0739654914023,0.109434763767,1.01351787393,0.450773503096,0.286,0.45,2,2,2,309,1
-0.072800889632,0.145935223082,0.158246669781,1.15912540671,0.381,0.45,3,3,2,310,1
-0.0624129872017,0.105125967591,1.15833186423,0.304782849064,0.411,0.45,2,2,2,311,1
1.20457858981,0.238340064141,0.24577976014,0.294767846684,0.391,0.45,0,0,2,312,1
-0.00509239654323,0.0819499688363,1.02112063814,0.300310023469,0.288,0.45,2,2,2,313,1
-0.0335817882754,0.0282190611217,0.231939548733,1.07537455955,0.275,0.45,3,3,2,314,1
-0.00748424653758,1.04758168106,0.319051951505,0.320955783336,0.326,0.45,1,1,2,315,1
1.17239376612,0.133762400722,0.306160698526,0.413381648478,0.367,0.45,0,0,2,316,1
0.00223311360923,0.0797347983145,0.547271958086,1.13694528845,0.373,0.45,3,3,2,317,1
1.16663606927,0.180460876349,0.188029630153,0.576234739638,0.378,0.45,0,0,2,318,1
0.783155597552,1.16403859958,0.107656542311,0.639701822752,0.402,0.45,1,1,2,319,1
-0.0506875639558,0.0520054992272,1.18266970965,0.525047173782,0.423,0.45,2,2,2,320,1
-0.0596900200682,1.11658311234,0.0950971698872,0.327937799786,0.424,0.45,1,1,2,321,1
-0.0444975780798,0.0850127919896,0.119308079171,1.18976236417,0.387,0.45,3,3,2,322,1
-0.0418346197022,0.0840174548349,1.09736490919,0.479863799095,0.376,0.45,2,2,2,323,1
1.14604060375,0.202130574661,0.171287012544,0.495353588887,0.383,0.45,0,0,2,324,1
-0.0455649535146,0.0396983401076,1.04525699318,0.258514274325,0.273,0.45,2,2,2,325,1
-0.035462605283,1.16978875956,0.351677354059,0.42114835428,0.25,0.45,1,1,2,326,1
-0.0361177569945,0.0502278248052,1.09347735361,0.484225377459,0.306,0.45,3,2,-1,327,1
1.08144498984,0.533176836449,0.0347811770416,0.327040934666,0.372,0.45,0,0,2,328,1
-0.0188589492884,0.0304881208821,0.85922586132,1.3606596005,0.416,0.45,3,3,2,329,1
-0.0111515386493,1.20461303729,0.0430055242597,0.392365880606,0.325,0.45,1,1,2,330,1
1.44608488684,0.362026946786,0.226084988828,0.26903480876,0.425,0.45,0,0,2,331,1
-0.0388224167208,1.01009964389,0.160760913007,0.279015354088,0.339,0.45,1,1,2,332,1
-0.0414641438003,0.0735964327353,1.03458505979,0.359473635708,0.309,0.45,2,2,2,333,1
1.20462982828,0.0278891900273,0.19987547183,0.525819035278,0.51,0.45,0,0,1,334,1
-0.0418670798464,0.0177260344185,1.21128385397,0.483160981469,0.38,0.45,2,2,2,335,1
-0.0342816347058,0.0219161994472,0.173105987427,1.27357691567,0.25,0.45,3,3,2,336,1
-0.0347761640272,0.253994759426,1.31253822933,0.336155694239,0.317,0.45,2,2,2,337,1
-0.0321759488119,1.00135287395,0.431540764606,0.421370178366,0.273,0.45,1,1,2,338,1
-0.0361847899298,0.0504776733324,1.16974384515,0.97858641261,0.402,0.45,3,2,-1,339,1
1.20252440509,0.136816367183,0.073505764276,0.701315646058,0.372,0.45,0,0,2,340,1
-0.038961577884,0.069876728546,1.06776076686,0.564971318764,0.352,0.45,3,2,-1,341,1
0.0157676154064,1.18335380263,0.0340998883749,0.298872472723,0.331,0.45,1,1,2,342,1
1.09753497977,0.0128542222619,0.0369970609337,0.536782176121,0.37,0.45,0,0,2,343,1
-0.058425715052,0.0221806383741,1.2286915223,0.637210531257,0.267,0.45,2,2,2,344,1
-0.0511099493123,1.27227161727,0.0229115162764,0.396513452121,0.323,0.45,0,1,-1,345,1
-0.0677933296356,1.27246480672,0.0305149907919,0.350988134254,0.348,0.45,1,1,2,346,1
-0.0451110466619,0.0181252160511,1.32294737767,0.587525655435,0.251,0.45,2,2,2,347,1
-0.0277671929299,0.0618196828515,0.169562882738,1.15377679345,0.323,0.45,3,3,2,348,1
-0.00392807937375,0.083848570688,1.04281558119,0.413365364076,0.303,0.45,2,2,2,349,1
-0.0341072001512,1.04309183091,0.260965940299,0.542588231468,0.287,0.45,3,1,-1,350,1
-0.0429748568242,1.15270937473,0.43635112999,0.268186701788,0.335,0.45,1,1,2,351,1
1.00233613476,0.148659743667,0.188641568147,0.552891453963,0.369,0.45,0,0,2,352,1
-0.0525013971347,1.13873860222,0.107230047134,0.389999817033,0.398,0.45,1,1,2,353,1
-0.0569584729569,0.0468453797612,0.736882753092,1.23281554893,0.337,0.45,3,3,2,354,1
1.00471482805,0.593146453764,0.316352194434,0.412492490963,0.394,0.45,0,0,2,355,1
-0.0521792121855,0.0322620752097,0.792139739924,1.02409483055,0.359,0.45,3,3,2,356,1
-0.0194831648753,0.0698816983075,1.22299215253,0.6071177157,0.3,0.45,2,2,2,357,1
1.22781195079,0.526012784459,0.0927719530267,0.458571164667,0.329,0.45,0,0,2,358,1
-0.0725690274955,0.1284643838,1.00784339753,0.315451628354,0.311,0.45,2,2,2,359,1
-0.0839998169557,1.44691349084,0.0803411039167,0.531336411402,0.259,0.45,1,1,2,360,1
-0.0598432133696,0.0103201837611,1.48363064198,0.567825369367,0.271,0.45,2,2,2,361,1
1.82460184556,0.181494015787,0.0464389311837,0.563772467512,0.324,0.45,0,0,2,362,1
-0.070435254137,0.0267951520499,0.0305797545941,1.04899651569,0.341,0.45,3,3,2,363,1
-0.0568092804443,1.02750814293,0.0242035389017,0.506374771158,0.344,0.45,1,1,2,364,1
-0.052628401279,0.0353698479887,1.12255753144,0.576764697872,0.362,0.45,3,2,-1,365,1
1.21377213326,0.0280426403719,0.0315676337203,0.585804029209,0.362,0.45,0,0,2,366,1
-0.0263746883148,1.11145999276,0.0296355446072,0.0938572588854,0.382,0.45,1,1,2,367,1
1.2456452946,0.113241769964,0.241865589793,0.59425675076,0.428,0.45,0,0,2,368,1
-0.0716867044806,0.0417238103228,1.11396949214,0.501159367307,0.329,0.45,2,2,2,369,1
-0.0637755779164,0.0436373693086,0.104640402484,1.04534415371,0.31,0.45,3,3,2,370,1
-0.0621152114151,0.0744116997394,1.11087856311,0.554875184909,0.359,0.45,2,2,2,371,1
-0.0573759439,1.10603558391,0.246610072574,0.656894975908,0.329,0.45,1,1,2,372,1
-0.0582478498636,0.0199022712174,1.07760614021,0.446894287264,0.341,0.45,2,2,2,373,1
-0.0547383386958,1.14597472404,0.26341611354,0.470440153525,0.32,0.45,1,1,2,374,1
-0.0531120864087,0.0140411398095,1.0080466596,0.581306528584,0.267,0.45,3,2,-1,375,1
1.17425663199,0.0133895883936,0.0579786821187,0.627346587791,0.288,0.45,0,0,2,376,1
-0.0586890370739,0.263701685315,0.14348013172,1.22786393611,0.353,0.45,3,3,2,377,1
-0.0488148613835,1.07339158908,0.0685038540588,0.525814293825,0.316,0.45,1,1,2,378,1
1.25360676001,0.0265687076256,0.27940846626,0.736237881595,0.378,0.45,0,0,2,379,1
-0.0865947892377,1.20657012965,0.171852357848,0.417593359992,0.353,0.45,1,1,2,380,1
-0.0637771297463,0.0577028474038,1.01148701321,0.484649782886,0.297,0.45,2,2,2,381,1
-0.0611484323719,0.0211171232761,0.084034983984,1.12902966546,0.23,0.45,3,3,2,382,1
-0.0591600968646,0.0271816891629,1.18920388402,0.567950861815,0.283,0.45,2,2,2,383,1
-0.0569492226417,1.13786501209,0.347813185712,0.440354729039,0.281,0.45,0,1,-1,384,1
-0.0540734972081,0.0274740974938,1.06301360129,0.518012755742,0.323,0.45,2,2,2,385,1
-0.0460497545371,1.14039637085,0.104315364803,0.445809400979,0.373,0.45,1,1,2,386,1
-0.050041052117,0.0417413766451,0.551651600459,1.04729051896,0.342,0.45,3,3,2,387,1
1.0416402361,0.704140617479,0.098157039776,0.388962317402,0.328,0.45,0,0,2,388,1
-0.051020188817,0.221379166199,0.162698561428,1.17394979711,0.332,0.45,3,3,2,389,1
-0.0474271293008,1.28768518492,0.043502890345,0.451812197074,0.286,0.45,1,1,2,390,1
1.08496020804,0.0847962530166,0.268164720367,0.641841640459,0.361,0.45,0,0,2,391,1
-0.0386705030025,0.0490422162123,1.14988988097,0.473532745638,0.274,0.45,2,2,2,392,1
1.04653076978,0.440227310268,0.0943357625804,0.490338125572,0.362,0.45,0,0,2,393,1
-0.0142800748825,1.39715145385,0.113940637691,0.408984683669,0.362,0.45,1,1,2,394,1
-0.065269355677,0.0317776509536,1.17927598117,0.5352848968,0.269,0.45,2,2,2,395,1
-0.0618626299911,0.0182840721404,0.257600636055,1.23261490115,0.237,0.45,3,3,2,396,1
-0.0591237856985,0.0181406776499,1.06546635334,0.483683653997,0.27,0.45,2,2,2,397,1
-0.0609839400021,1.18644872345,0.225044970807,0.385452744179,0.267,0.45,3,1,-1,398,1
1.058578571,0.189291238259,0.0523801635868,0.498814470718,0.365,0.45,0,0,2,399,1
-0.0740169600057,1.03240710547,0.184174227249,0.326686814456,0.271,0.45,1,1,2,400,1
-0.074604162636,0.0274168844103,1.00568785678,0.423654391475,0.237,0.45,0,2,-1,401,1
-0.0721295324884,0.0315024994059,1.12887298939,0.328717750572,0.331,0.45,3,2,-1,402,1
-0.0682373848189,1.03376946974,0.0389672521111,0.499633987641,0.242,0.45,1,1,2,403,1
-0.0570883469194,0.0277662241509,1.22857306381,0.610793326647,0.28,0.45,2,2,2,404,1
-0.0569980200101,1.1358482751,0.193066229355,0.448706997423,0.339,0.45,1,1,2,405,1
-0.0586472895339,0.0408371832746,0.239280153724,1.12818344163,0.353,0.45,3,3,2,406,1
-0.0653262351098,0.122093587293,0.431564286533,1.01406457771,0.349,0.45,2,3,-1,407,1
1.13077134397,-0.000840276020363,0.055276699974,0.0933923257384,0.37,0.45,0,0,2,408,1
-0.0873698839547,0.0300866884157,1.31388661481,0.255038517296,0.316,0.45,2,2,2,409,1
1.70242051035,0.593430354774,0.0516400325094,0.281237136699,0.359,0.45,0,0,2,410,1
-0.052980007886,0.0380424944889,1.03377071013,0.435176375128,0.29,0.45,3,2,-1,411,1
-0.0497938855278,1.06216601584,0.0234997035826,0.598137821856,0.288,0.45,1,1,2,412,1
1.98431078329,0.0520201148009,0.115310949741,0.764056097874,0.393,0.45,0,0,2,413,1
-0.0314359212441,1.16078287796,0.172340435133,0.401463228646,0.392,0.45,1,1,2,414,1
-0.0393909613149,0.0471081868904,0.231942639628,1.23303084363,0.364,0.45,3,3,2,415,1
-0.0433112707253,0.0588909362274,1.10527406702,0.532481861867,0.318,0.45,2,2,2,416,1
-0.0425074220339,0.0757545201199,0.219752637867,1.0199131544,0.383,0.45,3,3,2,417,1
1.35170335755,0.0492335069241,0.0330723538069,0.480231256896,0.417,0.45,0,0,2,418,1
-0.0731868437428,0.0362321021067,0.0977634159431,1.02840921409,0.333,0.45,2,3,-1,419,1
-0.0376196734598,1.05850326428,0.167661268509,0.284416589311,0.308,0.45,1,1,2,420,1
-0.0581267608073,0.025941353804,1.31266272233,0.426407620897,0.302,0.45,2,2,2,421,1
-0.0374661172254,1.0176426874,0.169141464999,0.236924409054,0.429,0.45,1,1,2,422,1
-0.0528202542014,0.0392060400064,0.0649220732753,1.1925096477,0.327,0.45,3,3,2,423,1
2.50543473668,0.420964807588,0.187921142602,0.388278928631,0.354,0.45,0,0,2,424,1
-0.0792392638642,0.027002219631,0.224664155646,1.0121118371,0.434,0.45,3,3,2,425,1
-0.0666358506429,1.2034064029,0.14684435324,0.284297972224,0.37,0.45,1,1,2,426,1
1.01253856388,0.0178780690225,0.245064446657,0.588235445503,0.368,0.45,0,0,2,427,1
-0.0658329033506,1.0571368565,0.38528205858,0.305305915237,0.399,0.45,1,1,2,428,1
-0.0563551234269,0.0346007610006,1.1895027604,0.343522916442,0.334,0.45,2,2,2,429,1
-0.0589198482275,0.0203768804091,0.0512887778545,1.24039895817,0.297,0.45,3,3,2,430,1
-0.0577898329586,0.0725575186102,1.09890827961,0.377453550237,0.369,0.45,2,2,2,431,1
1.01995364566,0.0497847590377,0.180725696901,0.387496449757,0.382,0.45,0,0,2,432,1
-0.0666713930037,0.0302817980468,1.09047300311,0.220590137295,0.303,0.45,2,2,2,433,1
0.147693320177,1.0177440588,0.149885293543,0.0755416925741,0.532,0.45,1,1,1,434,2
1.28720639854,0.0259168068607,0.12822354277,0.175748437992,0.366,0.45,0,0,2,435,2
-0.0383278608217,0.0690977730317,1.24107989914,0.181049449411,0.292,0.45,3,2,-1,436,2
-0.0115504454118,0.0918933351587,1.03955899351,0.403772184232,0.276,0.45,2,2,2,437,2
1.23310470219,0.21861939243,0.345224671158,0.53493219141,0.355,0.45,0,0,2,438,2
-0.0679763756899,0.0445305272677,1.01860930574,0.442680578867,0.251,0.45,2,2,2,439,2
-0.0557380663068,0.173789982597,0.235217608826,1.30644669097,0.42,0.45,3,3,2,440,2
-0.0289986614687,1.1724568064,0.125846872145,0.241957921962,0.344,0.45,1,1,2,441,2
-0.0552681156773,0.048927659303,1.04787661172,0.556835313914,0.267,0.45,2,2,2,442,2
-0.0550694410834,1.20097744979,0.257672200745,0.393580103329,0.281,0.45,1,1,2,443,2
-0.0534127804533,0.0700465909706,0.098439126312,1.03191953311,0.344,0.45,3,3,2,444,2
1.003996087,0.356125782372,0.305328863296,0.546578163321,0.317,0.45,0,0,2,445,2
-0.0542013718432,1.16188503177,0.2650582623,0.401725685323,0.31,0.45,1,1,2,446,2
-0.0526259268916,0.0490040249172,1.02148961724,0.621111705521,0.298,0.45,3,2,-1,447,2
0.0948948949988,1.11377484647,0.157493931123,0.447823602328,0.322,0.45,2,1,-1,448,2
1.07401950364,0.0495533836886,0.216949790521,0.636138649367,0.356,0.45,0,0,2,449,2
-0.08130032154,0.0449961494782,1.04981494166,0.373569690908,0.264,0.45,2,2,2,450,2
-0.0724306204822,0.0154677557324,0.00946922769497,1.15874292363,0.326,0.45,3,3,2,451,2
1.40540615245,0.359205531638,0.200344853777,0.40912697479,0.367,0.45,0,0,2,452,2
-0.0300442760441,0.0240595331872,0.279697023087,1.10197670091,0.358,0.45,3,3,2,453,2
-0.00286084514475,1.13059486423,0.200568446804,0.478929503489,0.303,0.45,1,1,2,454,2
2.09273970167,0.00268299136332,0.304911668494,0.626382036716,0.344,0.45,0,0,2,455,2
-0.0343630046702,1.24333819414,0.347250793653,0.387841887023,0.339,0.45,1,1,2,456,2
0.0369776589795,0.0499074013646,1.04285472804,0.572895175088,0.315,0.45,2,2,2,457,2
1.008720155,0.230601739418,0.184600872192,0.598226886824,0.415,0.45,1,0,-1,458,2
-0.043665838235,0.0483295396095,1.02824586249,0.604690361901,0.407,0.45,2,2,2,459,2
1.05112168195,0.162786425355,0.34664012894,0.629753249589,0.34,0.45,0,0,2,460,2
0.048063265442,0.214556245365,0.379132248266,1.15515686271,0.347,0.45,3,3,2,461,2
0.045456089433,0.209281823796,1.01190088336,0.448498124793,0.366,0.45,2,2,2,462,2
0.0316701916779,0.145070267958,0.19276681019,1.0333927691,0.362,0.45,3,3,2,463,2
1.08400367469,0.441174120397,0.219469793098,0.375695591473,0.364,0.45,0,0,2,464,2
1.11147144398,0.235657194764,0.266352851636,0.452512745937,0.389,0.45,1,0,-1,465,2
-0.0844270386672,0.0560436256411,1.05633857382,0.506745819041,0.303,0.45,3,2,-1,466,2
0.0112380690919,0.316378200812,1.02114334386,0.603249079287,0.313,0.45,1,2,-1,467,2
1.14634563258,0.0581183949584,0.30254887775,0.78620386003,0.407,0.45,0,0,2,468,2
0.137713196455,0.211021732416,1.0687704736,0.600743234002,0.282,0.45,2,2,2,469,2
-0.0513938079398,1.15803968926,0.22781970131,0.519123728485,0.279,0.45,1,1,2,470,2
1.17004274599,0.245012930179,0.32887144957,0.602282628356,0.362,0.45,0,0,2,471,2
0.156831239658,0.198166726157,0.340263490403,1.11853064496,0.288,0.45,3,3,2,472,2
0.01219902293,0.20395188637,1.12624165633,0.703060732147,0.327,0.45,2,2,2,473,2
1.18221679522,0.243673801824,0.180249645715,0.485318802025,0.367,0.45,0,0,2,474,2
0.10111671883,0.07923406181,1.01896225916,0.553261367312,0.309,0.45,2,2,2,475,2
0.0420506563674,0.111659337586,0.329906893342,1.14016932204,0.353,0.45,3,3,2,476,2
0.0502235242092,1.05152073755,0.208583784903,0.388242134707,0.336,0.45,1,1,2,477,2
0.223841306384,0.155408515714,0.367999637435,1.20105020767,0.357,0.45,3,3,2,478,2
1.00592146232,0.352901590924,0.246415594061,0.545268994037,0.346,0.45,0,0,2,479,2
0.0990285498291,1.09217680809,0.26672467901,0.543308155011,0.285,0.45,1,1,2,480,2
0.148165976663,0.0448050799357,1.10802659942,0.616211094665,0.262,0.45,2,2,2,481,2
0.887818121521,1.01265062428,0.229496429076,0.306918247907,0.351,0.45,1,1,2,482,2
0.0297451264156,0.0804098110694,0.307985974506,1.37775225285,0.34,0.45,3,3,2,483,2
1.1076686599,0.182004428249,0.247583362322,0.549255745854,0.325,0.45,0,0,2,484,2
0.0351301251379,0.149356882415,1.05524569669,0.549365872781,0.262,0.45,2,2,2,485,2
1.07365811095,0.506564678846,0.285044466463,0.419681332066,0.355,0.45,0,0,2,486,2
0.0436899977849,0.0560936785025,0.749471036075,1.14996647029,0.361,0.45,3,3,2,487,2
0.0337702431658,0.172673627265,1.12122377527,0.437590448765,0.331,0.45,2,2,2,488,2
0.0126216001689,0.0986942323582,0.481809367006,1.15061464266,0.405,0.45,3,3,2,489,2
0.0898423119621,1.05243518468,0.296775317895,0.421633594603,0.455,0.45,1,1,1,490,2
-0.0607557536493,1.05251245789,0.441066824967,0.529987749817,0.409,0.45,2,1,-1,491,2
1.05572982091,0.0146100359068,0.195514427426,0.61132128305,0.395,0.45,1,0,-1,492,2
0.23366052514,0.196848028445,0.461514441725,0.493101208394,0.7,0.45,0,-1,0,494,2
0.0721883041576,1.0598681032,0.488708775428,0.580398826667,0.412,0.45,1,1,2,494,2
-0.0459877872506,0.0793865570837,1.28635117126,0.545385807224,0.268,0.45,2,2,2,495,2
-0.0456562917585,0.132019531376,0.33327668661,1.34755394022,0.247,0.45,3,3,2,496,2
1.0352112388,0.384212296846,0.305907275206,0.473377069924,0.378,0.45,0,0,2,497,2
0.0190884801611,0.0776349018081,0.600712636671,1.06150429879,0.337,0.45,3,3,2,498,2
0.0713287482948,0.135755743417,1.05462128702,0.629195098193,0.309,0.45,2,2,2,499,2
1.04395205797,0.221120245753,0.292147051434,0.485979418911,0.332,0.45,0,0,2,500,2
0.0440926133453,0.0722975988415,1.14078740681,0.616332978523,0.28,0.45,2,2,2,501,2
-0.00705741247865,1.3657523475,0.349036981368,0.467037480189,0.278,0.45,1,1,2,502,2
-0.0321281099832,0.0441221133408,1.06424615088,0.483806002801,0.28,0.45,3,2,-1,503,2
-0.00453929115008,1.38528716757,0.158997673696,0.575028521577,0.335,0.45,1,1,2,504,2
1.15568021729,0.178109684341,0.198190630361,0.792780363844,0.365,0.45,0,0,2,505,2
0.103325741359,1.22105391093,0.211340933404,0.594601552066,0.365,0.45,1,1,2,506,2
-0.0771490453098,0.0681000840851,0.150504446783,1.12315573239,0.331,0.45,3,3,2,507,2
0.038807999526,1.21976851471,0.169577862363,0.449376808713,0.339,0.45,2,1,-1,508,2
1.20893674124,0.121372035013,0.156767758508,0.453378528217,0.393,0.45,0,0,2,509,2
-0.00401523114307,0.06751498218,0.57085435045,1.17434678592,0.36,0.45,3,3,2,510,2
1.27648797914,0.210201639888,0.330705469885,0.590945575494,0.373,0.45,0,0,2,511,2
0.00129123669528,0.102465258832,1.16070574775,0.588704121664,0.287,0.45,2,2,2,512,2
-0.0526506566633,0.113488195883,0.407225463488,1.12904787063,0.359,0.45,3,3,2,513,2
-0.0536969463389,1.14711509159,0.152865356892,0.437491865671,0.282,0.45,1,1,2,514,2
1.27646916173,0.221557512647,0.240077865316,0.643448798008,0.357,0.45,0,0,2,515,2
1.09794793686,0.167248406437,0.302831381727,0.494557825116,0.348,0.45,1,0,-1,516,2
-0.0849410914625,0.152582190048,1.2600070542,0.477625284449,0.258,0.45,2,2,2,517,2
0.414411488914,0.0612823138597,0.126934181871,1.01819004687,0.331,0.45,1,3,-1,518,2
1.08787568882,0.261509135345,0.21558579004,0.70071997517,0.345,0.45,0,0,2,519,2
-0.0116662933302,0.107923010457,1.16689989404,0.470484841563,0.331,0.45,3,2,-1,520,2
0.0157825683576,0.0872668987922,1.02389253449,0.707053636028,0.346,0.45,2,2,2,521,2
1.16919550974,0.0128433880526,0.298392193538,0.80418767804,0.351,0.45,0,0,2,522,2
-0.0534305274297,0.00656617365869,1.05029575891,0.585346270967,0.281,0.45,2,2,2,523,2
-0.0490728537685,0.0394901188099,0.184584273387,1.02866060666,0.341,0.45,3,3,2,524,2
0.118901010853,1.20818694161,0.312317391876,0.311419483596,0.339,0.45,1,1,2,525,2
-0.0492733426607,0.0292516870991,1.13861342549,0.526086780155,0.256,0.45,2,2,2,526,2
1.20419875534,0.201580855126,0.361780912313,0.538592491303,0.311,0.45,1,0,-1,527,2
-0.0752697476741,0.0518893428787,0.37969052701,1.03490983623,0.361,0.45,3,3,2,528,2
1.20489622148,0.258109977388,0.301583166545,0.722716483328,0.4,0.45,0,0,2,529,2
1.0249370857,0.259488612394,0.358943124941,0.572257694911,0.389,0.45,1,0,-1,530,2
-0.0844524323189,0.0376628675479,1.03876771017,0.510537238759,0.318,0.45,0,2,-1,531,2
-0.0557212522152,0.0451866209118,1.01850566931,0.914818724933,0.315,0.45,2,2,2,532,2
-0.0562756728239,0.0230294649275,0.317233743925,1.23255328353,0.2,0.45,3,3,2,533,2
-0.0455829600125,1.019181214,0.29428477214,0.345882498037,0.291,0.45,0,1,-1,534,2
0.00615485487763,0.0449333129535,0.473759700665,1.12331894983,0.336,0.45,3,3,2,535,2
-0.00936487808093,0.242019918325,1.21482627017,0.498420852305,0.353,0.45,2,2,2,536,2
1.33611130961,0.106921735819,0.223353619959,0.576781477975,0.337,0.45,0,0,2,537,2
-0.0663070478135,1.16728993631,0.250040126816,0.307126706402,0.325,0.45,1,1,2,538,2
-0.0617960015036,0.00631502154529,1.17545331378,0.519819478075,0.31,0.45,2,2,2,539,2
-0.0500584801478,1.05958892231,0.230758501714,0.454066431146,0.329,0.45,1,1,2,540,2
-0.0519208066036,0.112681995687,0.271061317685,1.22777609923,0.348,0.45,3,3,2,541,2
1.16014479161,0.0955752846183,0.176890698717,0.397588689535,0.336,0.45,1,0,-1,542,2
1.17482080577,0.266247974513,0.323873321398,0.430730236912,0.406,0.45,0,0,2,543,2
-0.0430639628757,0.0681546366888,1.05626607468,0.44602948297,0.346,0.45,2,2,2,544,2
-0.0633583407255,0.106257406277,0.196193691217,1.28400507351,0.335,0.45,3,3,2,545,2
-0.0605980176122,0.098337032437,1.04470881358,0.465651017955,0.36,0.45,2,2,2,546,2
1.27775800608,0.00678211513548,0.199727854801,0.472695101946,0.329,0.45,0,0,2,547,2
0.0112561350577,0.104975378594,0.240113882442,1.10800192805,0.375,0.45,3,3,2,548,2
0.202376104608,1.07291297215,0.184970122504,0.359461087179,0.309,0.45,1,1,2,549,2
-0.0223892585911,0.0702818580453,0.14440067552,1.23652925997,0.303,0.45,3,3,2,550,2
1.06977589165,0.261149219672,0.0889586301198,0.304952611323,0.389,0.45,0,0,2,551,2
0.0950013800487,1.15412526645,0.189185337347,0.507056110621,0.412,0.45,1,1,2,552,2
-0.0383319398639,0.198464305368,1.17656371682,0.50863577704,0.317,0.45,2,2,2,553,2
-0.00132818558573,1.34536680652,0.163070213109,0.389692009002,0.418,0.45,1,1,2,554,2
-0.0320118024595,0.034991190302,1.24811177256,0.902692419566,0.391,0.45,2,2,2,555,2
1.47553108293,0.220873695169,0.21415990257,0.329137919006,0.427,0.45,0,0,2,556,2
0.107004610003,0.16379527075,0.281198559688,1.02171364652,0.295,0.45,3,3,2,557,2
-0.0555663969764,0.399305773351,1.09680039135,0.388689222445,0.34,0.45,2,2,2,558,2
-0.0533675083901,0.0785344109823,0.691454741405,1.04200254229,0.412,0.45,3,3,2,559,2
-0.0508015157473,1.08394585705,0.205184904249,0.207806781894,0.343,0.45,0,1,-1,560,2
-0.0214599035362,1.07284906728,0.566888395859,0.16906001625,0.355,0.45,1,1,2,561,2
-0.0307040087593,0.0950885356156,0.14245655979,1.00582533198,0.271,0.45,3,3,2,562,2
-0.0247521420186,1.10848732847,0.265842610794,0.416925337258,0.338,0.45,1,1,2,563,2
1.00393825301,0.0810614287957,0.158340875491,0.443575013311,0.391,0.45,0,0,2,564,2
-0.0610576363358,0.0548643406812,1.03662213023,0.570917653614,0.311,0.45,2,2,2,565,2
-0.061965598937,1.174607325,0.249728965897,0.384726207682,0.327,0.45,1,1,2,566,2
-0.0609928689716,0.0549285729444,0.408974334083,1.09159118508,0.315,0.45,3,3,2,567,2
1.05302680639,0.277255082386,0.149681623619,0.33716407473,0.393,0.45,0,0,2,568,2
-0.00744871166226,0.0421449361114,1.05203274105,0.488773038479,0.375,0.45,2,2,2,569,2
-0.0313161485717,0.0180487946563,0.199908403859,1.09967589373,0.312,0.45,3,3,2,570,2
-0.0325587222553,0.280212019897,1.12529982282,0.321581776632,0.375,0.45,2,2,2,571,2
1.14390250285,0.111643515248,0.308890114599,0.568414230616,0.354,0.45,0,0,2,572,2
-0.0416333902518,0.0693692464769,0.202710226508,1.22053094944,0.332,0.45,3,3,2,573,2
-0.0368981087473,1.017210878,0.233706642735,0.404798192109,0.255,0.45,1,1,2,574,2
-0.0412949435954,0.0412752257976,1.10807690672,0.446064225483,0.24,0.45,2,2,2,575,2
-0.0373939178517,1.04985824351,0.265387530702,0.417909498623,0.416,0.45,1,1,2,576,2
1.12308147012,0.102289432799,0.280268512909,0.475389527617,0.386,0.45,0,0,2,577,2
0.0372220877419,1.06635256802,0.307667515087,0.357430683869,0.34,0.45,1,1,2,578,2
1.04036813095,0.947042574054,0.387777438537,0.60539483297,0.454,0.45,0,0,1,579,2
-0.0230483599612,0.0344307617503,0.879717326721,0.475207532081,0.7,0.45,2,-1,0,581,2
-0.0230609710115,0.0334792906523,1.10609282869,0.47326031987,0.0120000000003,0.45,3,2,-1,581,2
-0.0358963332535,0.0661583919433,1.04245694462,0.430198402735,0.308,0.45,2,2,2,582,2
-0.0192632761019,1.12033001036,0.19338672443,0.372403499973,0.238,0.45,0,1,-1,583,2
-0.0179780421263,0.122492561404,0.321571362468,1.18915402881,0.353,0.45,3,3,2,584,2
0.516085489473,1.0017599138,0.2304512464,0.34274851121,0.411,0.45,1,1,2,585,2
-0.0357275910086,0.134118345969,1.16545583336,0.459645987436,0.299,0.45,2,2,2,586,2
-0.0293806492823,1.03736149661,0.247038627623,0.224033253734,0.306,0.45,1,1,2,587,2
-0.0304713667405,0.063408836308,0.647260471926,1.06231565591,0.36,0.45,3,3,2,588,2
1.17212320425,0.365061774753,0.195571902108,0.422489369455,0.332,0.45,0,0,2,589,2
0.0383782756217,1.11898377664,0.304302056022,0.434593937091,0.325,0.45,1,1,2,590,2
1.164953881,0.237108359767,0.357514201865,0.539410355845,0.368,0.45,0,0,2,591,2
0.110219344237,0.120547312158,0.306307792425,1.28441267489,0.354,0.45,3,3,2,592,2
0.0370657352117,0.264959247336,1.04089901026,0.970084992007,0.443,0.45,2,2,2,593,2
1.12180875736,0.25963242109,0.157624262289,0.310631850444,0.404,0.45,0,0,2,594,2
0.0147551134491,1.01508701342,0.656591125049,0.330386925834,0.311,0.45,2,1,-1,595,2
-0.0563121984034,0.100884450791,0.812044757418,1.10781281285,0.374,0.45,3,3,2,596,2
0.0267193151589,1.05248695816,0.115937163077,0.177501365954,0.341,0.45,1,1,2,597,2
0.00598894539305,0.136702596746,1.1451362073,0.514353043425,0.211,0.45,2,2,2,598,2
-0.0400594224396,1.2133134488,0.233806243716,0.38544869641,0.272,0.45,1,1,2,599,2
-0.049930154332,0.146796535857,0.698945395028,1.02236648954,0.32,0.45,3,3,2,600,2
1.41630846293,0.435256689965,0.123881129039,0.312741100394,0.419,0.45,0,0,2,601,2
-0.00787639968765,1.15384177599,0.253466465561,0.454661588314,0.376,0.45,1,1,2,602,2
-0.0293670425566,0.130500645374,0.290574103398,1.17374504711,0.344,0.45,3,3,2,603,2
1.19805963621,0.497370574664,0.180934176979,0.379579332467,0.397,0.45,0,0,2,604,2
-0.0345572958082,0.0957205536345,1.08621460351,0.536259291999,0.396,0.45,2,2,2,605,2
-0.0114503868945,0.245320977949,0.20359322057,1.19834394135,0.359,0.45,3,3,2,606,2
-0.0116781654719,1.3915794234,0.197022085496,0.21573779848,0.327,0.45,2,1,-1,607,2
1.26757696537,0.278423825101,0.150147369844,0.266307508291,0.318,0.45,0,0,2,608,2
0.00228064131151,1.07707027861,0.25854129019,0.307968349416,0.347,0.45,1,1,2,609,2
-0.0288529944762,0.172886990794,1.24336563471,0.419782749145,0.244,0.45,2,2,2,610,2
1.07332263951,0.190830156926,0.0831137125175,0.296411732139,0.347,0.45,1,0,-1,611,2
1.00300529236,0.444470382234,0.166462811708,0.126142702542,0.423,0.45,0,0,2,612,2
-0.0324780805697,0.0611361501957,1.02956677214,0.286443903428,0.309,0.45,3,2,-1,613,2
0.00173549199955,1.09676323333,0.0803254431498,0.40232663475,0.326,0.45,1,1,2,614,2
-0.0269117390422,0.128824027281,0.192893456761,1.08762502811,0.325,0.45,3,3,2,615,2
-0.027802485778,0.0936624295613,1.11883827303,0.279827240799,0.34,0.45,2,2,2,616,2
1.19709175213,0.0452331804969,0.167614164773,0.455781882802,0.424,0.45,0,0,2,617,2
0.000701383579067,0.0886325823875,1.10464304978,0.340535698721,0.326,0.45,2,2,2,618,2
-0.0747922710959,0.0150809266008,0.288413935814,1.0664402234,0.293,0.45,3,3,2,619,2
1.18710923014,0.139966160423,0.157835399438,0.296152171122,0.389,0.45,0,0,2,620,2
-0.0837184874097,1.19959237332,0.232284762386,0.266000939745,0.317,0.45,1,1,2,621,2
-0.0799517187871,0.0558586485731,1.02329267458,0.491951558724,0.286,0.45,2,2,2,622,2
-0.080613944503,0.0119795256516,0.30574244099,1.15838313609,0.24,0.45,1,3,-1,623,2
1.18482214777,0.0941939386672,0.298893838082,0.657133143127,0.386,0.45,0,0,2,624,2
-0.0519634748806,0.0623399142593,0.522501971596,1.10437725793,0.327,0.45,3,3,2,625,2
1.09415568569,0.296253161902,0.205214437264,0.321881969712,0.319,0.45,1,0,-1,626,2
1.12096607369,0.108315386579,0.487471479283,0.503694555637,0.456,0.45,0,0,1,627,2
-0.0353015649813,0.0580742388622,0.493323263133,1.0210743334,0.391,0.45,3,3,2,628,2
-0.0266906453282,0.0491852704632,1.06079048698,0.412132817849,0.306,0.45,2,2,2,629,2
-0.0669613661982,0.135087406805,0.286072129629,1.09205491757,0.384,0.45,3,3,2,630,2
1.01383065283,0.417630286644,0.193189794814,0.167372478447,0.423,0.45,0,0,2,631,2
-0.0824083374162,0.0835857208504,1.04428398682,0.324738354885,0.455,0.45,2,2,1,632,2
-0.0631216337133,1.12686349747,0.288033126361,0.363637057119,0.538,0.45,1,1,1,633,2
-0.0753161555539,0.0641010437042,1.020647977,0.432583025458,0.415,0.45,2,2,2,634,2
1.15950528743,0.0505276586441,0.211186227996,0.494429416529,0.375,0.45,0,0,2,635,2
-0.0726590630894,1.01279493221,0.154236524498,0.145029314437,0.338,0.45,1,1,2,636,2
-0.0741409575327,0.0309135024395,0.266872990462,1.18725609129,0.363,0.45,3,3,2,637,2
-0.00239940373069,1.12628944,0.29348639866,0.296067742627,0.396,0.45,1,1,2,638,2
-0.0710248716044,0.0687414581529,0.343557020268,1.06724294878,0.385,0.45,3,3,2,639,2
1.21417423589,0.164100378877,0.261620665445,0.454452672089,0.394,0.45,0,0,2,640,2
-0.0776757594118,1.08305600984,0.340919330691,0.480450230669,0.312,0.45,2,1,-1,641,2
-0.073269550408,0.0171208798941,0.297535258639,1.14407222771,0.357,0.45,3,3,2,642,2
-0.0673764634328,0.429055893817,1.01194610756,0.427175843542,0.423,0.45,2,2,2,643,2
1.04730438085,0.15874573783,0.287261721647,0.616296921959,0.447,0.45,0,0,2,644,2
-0.0665735573716,1.09188661714,0.251558966184,0.333625283808,0.433,0.45,1,1,2,645,2
-0.0669038746746,0.0181626284486,1.06330765265,0.440228069673,0.42,0.45,2,2,2,646,2
-0.0617249515116,1.06996021872,0.0386773313845,0.170801935663,0.476,0.45,1,1,1,647,2
1.1731172919,0.126676727179,0.127789892193,0.568980588813,0.411,0.45,0,0,2,648,2
-0.0565732356113,0.0854455320911,0.211592109246,1.0088616095,0.33,0.45,3,3,2,649,2
0.856902750998,1.02061551821,0.202171490557,0.444928148264,0.389,0.45,1,1,2,650,2
-0.00500704625604,0.11071332978,1.18532395277,0.338795698799,0.399,0.45,2,2,2,651,3
-0.0521258011817,0.133971137539,0.444009462271,1.29451409446,0.352,0.45,3,3,2,652,3
0.0122276303204,1.169221126,0.219964815865,0.402520212801,0.256,0.45,1,1,2,653,3
1.52066593627,0.0916284977615,0.298396475409,0.54590813279,0.318,0.45,0,0,2,654,3
-0.0867168422481,0.0759161834849,1.12219854501,0.520806763961,0.286,0.45,3,2,-1,655,3
1.09444094678,0.164224804072,0.281257810212,0.558728403,0.348,0.45,0,0,2,656,3
-0.0362968354108,1.00238722921,0.296440839202,0.470528724683,0.375,0.45,1,1,2,657,3
-0.0432294763316,0.0649755783957,1.15807697804,0.56894654524,0.309,0.45,2,2,2,658,3
-0.0379808894543,1.36074003598,0.264907514523,0.538152895171,0.382,0.45,1,1,2,659,3
-0.0453542572892,0.0165874443105,0.0273327031705,1.13906317552,0.344,0.45,3,3,2,660,3
-0.042854652567,0.063334256473,1.0664456472,0.607411020896,0.377,0.45,2,2,2,661,3
1.1918173809,0.0190916776393,0.28296527457,0.320879183946,0.387,0.45,0,0,2,662,3
-0.0671811833447,0.0246145376461,1.07949007749,0.202697915999,0.352,0.45,2,2,2,663,3
-0.0572815384569,1.20396700153,0.414197541554,0.38878184168,0.274,0.45,1,1,2,664,3
-0.0572474081874,0.0299481064188,1.01574109914,0.607725618834,0.349,0.45,3,2,-1,665,3
1.51299815813,0.273838313625,0.0995868000865,0.341684487658,0.335,0.45,0,0,2,666,3
-0.080524597184,0.0527411564462,1.03997924588,0.521178937752,0.283,0.45,3,2,-1,667,3
-0.0329998224834,1.04435078034,0.194835839517,0.503766362071,0.268,0.45,1,1,2,668,3
1.07260010257,0.0133075301109,0.290493027511,0.622201707892,0.337,0.45,0,0,2,669,3
-0.0267190794472,1.01802824603,0.247324661459,0.371523741756,0.321,0.45,1,1,2,670,3
-0.0333625005112,0.0188625433072,1.1139072488,0.536124133915,0.251,0.45,2,2,2,671,3
1.00044588691,0.00733566886921,0.178172100404,0.540672944434,0.365,0.45,0,0,2,672,3
-0.0433614957825,0.00773334925163,1.03609516094,0.380593493227,0.285,0.45,2,2,2,673,3
-0.0398694348336,0.0100646020247,0.113485083496,1.11901211741,0.336,0.45,3,3,2,674,3
-0.0331730633985,0.121204821404,1.04673182468,0.408048447894,0.371,0.45,2,2,2,675,3
-0.0382309386804,1.01928987318,0.159149114712,0.388506024078,0.332,0.45,1,1,2,676,3
-0.0398543679186,0.0391212874587,0.224084547425,1.3327660731,0.35,0.45,3,3,2,677,3
1.0986083731,0.214627828996,0.0805376058425,0.273191187275,0.374,0.45,0,0,2,678,3
-0.0573918092973,1.13956145303,0.523191571867,0.326462826226,0.415,0.45,1,1,2,679,3
1.38279659796,0.00580699709462,0.251108522793,0.750504947726,0.433,0.45,0,0,2,680,3
-0.0819743009022,0.0471826108175,0.208569217367,1.04140877566,0.336,0.45,3,3,2,681,3
-0.0435336428394,1.17407868567,0.174111899751,0.30271269859,0.263,0.45,1,1,2,682,3
-0.0585638645009,0.0512299109687,1.08256699533,0.484098983415,0.344,0.45,2,2,2,683,3
0.0150727536036,0.0315247053532,0.355156146165,1.03204380676,0.43,0.45,3,3,2,684,3
0.0574008105612,0.155500289044,0.207031632343,1.03469523173,0.404,0.45,2,3,-1,685,3
1.0178959626,0.0293846856992,0.105726561091,0.190887610399,0.343,0.45,0,0,2,686,3
-0.069223918251,0.0142566131919,1.23238656874,0.322614656083,0.23,0.45,2,2,2,687,3
1.12403070393,0.339567161477,0.307102938239,0.433679430954,0.349,0.45,0,0,2,688,3
-0.0821094773069,0.0302870807738,0.533387268388,1.01932079863,0.368,0.45,3,3,2,689,3
0.0185656611321,1.00011825948,0.182568894813,0.281921169389,0.387,0.45,1,1,2,690,3
-0.0680904244616,0.0621750082866,0.403903092973,1.03173635602,0.356,0.45,3,3,2,691,3
1.07057020332,0.227433950097,0.139600446652,0.461966947992,0.355,0.45,0,0,2,692,3
-0.0772290737112,1.29902239497,0.285992550037,0.273303220584,0.308,0.45,1,1,2,693,3
-0.0829687295308,0.0191858918386,1.09831698402,0.33367950975,0.304,0.45,2,2,2,694,3
-0.0805575120077,0.0107471019659,0.136054557246,1.19328773023,0.299,0.45,3,3,2,695,3
-0.0793289531893,0.010343897597,0.538086577633,1.07677926951,0.441,0.45,2,3,-1,696,3
-0.0731315549635,1.03585452084,0.346771231202,0.162383590497,0.337,0.45,1,1,2,697,3
1.05430532581,0.153411881178,0.205800250092,0.31916114031,0.252,0.45,0,0,2,698,3
-0.0825482071457,0.0731814134959,1.00668408116,0.211661630755,0.3,0.45,2,2,2,699,3
-0.0742666752484,1.03672948401,0.220963796155,0.24983627702,0.288,0.45,1,1,2,700,3
-0.076664786619,0.086634920804,0.0933594895274,1.10423442412,0.323,0.45,3,3,2,701,3
1.13401309198,0.722469574491,0.10075125192,0.155580591216,0.403,0.45,0,0,2,702,3
-0.0482005871999,0.0941028681714,0.322707606691,1.17389512181,0.424,0.45,3,3,2,703,3
-0.0659384414485,1.08184893103,0.114187545032,0.250355848681,0.324,0.45,1,1,2,704,3
1.33075272417,0.16733799035,0.214572497374,0.4862850007,0.359,0.45,0,0,2,705,3
-0.0536426920605,1.08106411475,0.190223963585,0.247781502431,0.301,0.45,2,1,-1,706,3
1.01487833512,0.489496300402,0.0345006336868,0.333844930109,0.351,0.45,0,0,2,707,3
-0.0869571652827,1.01948454469,0.588539181574,0.0848857050583,0.386,0.45,1,1,2,708,3
-0.0845736814851,0.130035895257,1.09013507272,0.368822727792,0.281,0.45,2,2,2,709,3
-0.0854229365489,0.0144231323629,0.02479521996,1.03037427782,0.265,0.45,3,3,2,710,3
-0.0849037326464,0.0250405551544,1.2017081565,0.232560506434,0.338,0.45,2,2,2,711,3
-0.0806997632963,1.13497358429,0.139672625612,0.233534111509,0.323,0.45,0,1,-1,712,3
-0.059487930943,1.1716736343,0.0971303035264,0.222793815144,0.281,0.45,1,1,2,713,3
-0.0579866820372,0.081734563124,0.220744107288,1.09521160769,0.342,0.45,3,3,2,714,3
1.38830737149,0.44486024013,0.0995634784304,0.243854904804,0.451,0.45,0,0,1,715,3
-0.0922664328014,0.0388180487294,0.790618267482,1.08155546931,0.431,0.45,3,3,2,716,3
-0.0908320310276,1.07838370084,0.0314515658577,0.262936680304,0.352,0.45,1,1,2,717,3
-0.0854524159518,0.0937687105046,1.16623841827,0.617103094803,0.26,0.45,2,2,2,718,3
-0.0810749172543,1.0577610458,0.226174090388,0.467537985929,0.395,0.45,1,1,2,719,3
1.10340777092,0.0876244497357,0.294675891681,0.619479605358,0.451,0.45,0,0,1,720,3
-0.0904780493231,0.0678131962789,1.03523903288,0.505116417093,0.386,0.45,2,2,2,721,3
-0.0916777743749,0.0438033099167,0.172633701244,1.10885762125,0.359,0.45,3,3,2,722,3
-0.0853257527949,0.0982569966916,1.07550814098,0.250871946299,0.422,0.45,2,2,2,723,3
1.25792018052,0.131934861081,0.256822453639,0.48899973358,0.408,0.45,0,0,2,724,3
0.0294430871661,1.04086379053,0.168658440159,0.310844878154,0.395,0.45,1,1,2,725,3
-0.0879837713204,0.0178655957883,1.04393759006,0.400549784705,0.263,0.45,3,2,-1,726,3
1.07583752766,0.175481181473,0.0316729124854,0.429681747128,0.347,0.45,0,0,2,727,3
-0.100135934094,0.0453389490882,0.0616062843619,1.2422625733,0.32,0.45,3,3,2,728,3
-0.088427118582,1.10988171836,0.0315274377668,0.199207984457,0.338,0.45,1,1,2,729,3
-0.0847149600392,0.0282414077797,1.17861978564,0.525708271846,0.296,0.45,2,2,2,730,3
-0.0860712076077,1.23300667136,0.229930465155,0.37902525651,0.308,0.45,1,1,2,731,3
1.02775496355,0.0261084560315,0.241779581058,0.567676322507,0.382,0.45,0,0,2,732,3
-0.0659253010665,0.0747743241816,1.07927643717,0.457390128815,0.311,0.45,2,2,2,733,3
-0.0640838181376,0.125687062227,0.203280435383,1.11683251157,0.396,0.45,3,3,2,734,3
-0.0596354738333,0.0746057363254,1.06410045326,0.423092392471,0.465,0.45,2,2,1,735,3
1.15245694242,0.00071105839101,0.242546953704,0.480965323978,0.389,0.45,0,0,2,736,3
-0.0683595113964,1.05843153324,0.280679614024,0.308340930598,0.288,0.45,1,1,2,737,3
-0.0569575545462,0.0181385154632,1.00534117465,0.426388430752,0.253,0.45,3,2,-1,738,3
1.17073600804,0.270343145731,0.346638491342,0.488798323052,0.344,0.45,0,0,2,739,3
-0.0851007545214,0.0083756003313,0.334707173498,1.26855401293,0.306,0.45,3,3,2,740,3
0.126552172843,1.0888496451,0.28742207188,0.373121405516,0.321,0.45,1,1,2,741,3
1.06567856773,0.0248248389104,0.541084190395,0.501012451438,0.361,0.45,0,0,2,742,3
-0.0691701893243,0.0105302962607,1.01076085879,0.350483624348,0.302,0.45,2,2,2,743,3
-0.0601943418651,1.16360621131,0.80417121296,0.0935065330873,0.385,0.45,1,1,2,744,3
-0.0577261977,0.0813778325484,1.16495856101,0.329922561122,0.275,0.45,2,2,2,745,3
-0.058700970003,0.072424191574,0.0942534614203,1.28072188152,0.38,0.45,3,3,2,746,3
-0.0571953639263,0.0998137179552,1.08805752795,0.205312821518,0.409,0.45,2,2,2,747,3
-0.0616594362721,0.0270492734189,0.18546581061,1.00342792992,0.44,0.45,3,3,2,748,3
1.01230148303,0.23184566837,0.0677100905182,0.185579748942,0.465,0.45,0,0,1,749,3
-0.0666629886505,1.1113472614,0.11811098339,0.278860097487,0.336,0.45,1,1,2,750,3
-0.0616351059,0.0213705921491,1.02100892418,0.330957269952,0.251,0.45,0,2,-1,751,3
-0.04464885318,0.0288895576872,1.03864292355,0.33937000258,0.267,0.45,3,2,-1,752,3
-0.049635450562,1.13895900675,0.0491710146662,0.243749167431,0.253,0.45,1,1,2,753,3
-0.0432747831737,0.0792431933384,1.03981375046,0.430570983511,0.348,0.45,2,2,2,754,3
-0.0417158923361,1.0353276948,0.187496716262,0.170552668121,0.304,0.45,0,1,-1,755,3
-0.062278998994,1.0326687831,0.474758655178,0.352597770063,0.296,0.45,2,1,-1,756,3
-0.0581110069619,1.08941912014,0.192504771877,0.400580588948,0.328,0.45,1,1,2,757,3
-0.0608469751105,0.0208050587263,0.274511495274,1.06332729734,0.419,0.45,3,3,2,758,3
-0.0637978447013,0.0711663621932,1.06662034938,0.42839775315,0.49,0.45,2,2,1,759,3
-0.0600488797903,1.09577904716,0.186132516605,0.347542859038,0.469,0.45,1,1,1,760,3
-0.0614802474849,0.0220259485081,0.238036634493,1.17343967305,0.409,0.45,3,3,2,761,3
1.11790659366,0.212054458353,0.03549576046,0.438178625658,0.366,0.45,0,0,2,762,3
-0.0824633302647,0.0849648850047,0.853037473161,1.01748087344,0.373,0.45,3,3,2,763,3
0.162698714213,1.11921075081,0.0482500184036,0.545726458444,0.337,0.45,1,1,2,764,3
1.18968864219,0.0717366003387,0.187260980528,0.743056527172,0.359,0.45,0,0,2,765,3
-0.0722497470464,0.0522511157242,1.06389019019,0.69352099717,0.332,0.45,2,2,2,766,3
-0.0782668342387,0.0204292397684,0.0604433403047,1.02802267893,0.283,0.45,0,3,-1,767,3
-0.0363400610372,1.04086609745,0.660120520049,0.161033325067,0.409,0.45,1,1,2,768,3
-0.0534663190322,0.127048970078,1.04847132134,0.311454667862,0.295,0.45,2,2,2,769,3
-0.0556719937655,0.00589487251993,0.205157653639,1.1474283487,0.274,0.45,3,3,2,770,3
-0.0560280402874,0.0626395713035,1.04452270184,0.331786499638,0.379,0.45,2,2,2,771,3
-0.058135144305,0.0238459626181,0.396959140583,1.40286304132,0.415,0.45,3,3,2,772,3
1.11361863671,0.757384042861,0.142677378758,0.593418558607,0.483,0.45,0,0,1,773,3
-0.0270395849448,1.00717708237,0.763720528304,-0.000402313837692,0.421,0.45,1,1,2,774,3
-0.0356553386416,0.0429413668254,0.331188025908,1.2252994869,0.303,0.45,3,3,2,775,3
-0.0325194299468,1.21188035655,0.0756784633285,0.305864169441,0.274,0.45,1,1,2,776,3
1.35331201266,0.207282928083,0.142693516828,0.48287619006,0.381,0.45,0,0,2,777,3
-0.0947413808242,0.0485617378974,1.00287840065,0.436675954256,0.321,0.45,3,2,-1,778,3
-0.0857640636873,1.20377719168,0.123544985977,0.377188843471,0.232,0.45,2,1,-1,779,3
-0.0830709567008,1.10794704417,0.168452697308,0.296246358664,0.216,0.45,1,1,2,780,3
-0.083542463951,0.0826852270173,1.15760556054,0.545047752423,0.327,0.45,2,2,2,781,3
1.10992493204,0.0414445784577,0.192720804348,0.646880504772,0.389,0.45,0,0,2,782,3
-0.094320405389,0.0178550810915,1.02969614697,0.388351647795,0.282,0.45,2,2,2,783,3
-0.085637154106,1.07813237661,0.139545613914,0.176706602387,0.47,0.45,1,1,1,784,3
-0.0823159549858,0.0187344106775,0.113512437225,1.06266638004,0.338,0.45,3,3,2,785,3
-0.0781248552065,1.0940693247,0.0988946950919,0.348492111604,0.41,0.45,0,1,-1,786,3
-0.0747113043723,1.09659319049,0.156031251847,0.463700750024,0.252,0.45,1,1,2,787,3
2.33439887206,0.0786377825423,0.245197139663,0.514055495316,0.444,0.45,0,0,2,788,3
-0.0339231578063,0.0562309663642,0.342806611164,1.10554352538,0.39,0.45,3,3,2,789,3
0.00410506915181,1.03670680813,0.162917010467,0.483590918527,0.305,0.45,1,1,2,790,3
-0.0508385909486,0.0570682030254,1.05767300206,0.582155494868,0.353,0.45,2,2,2,791,3
1.17701522845,0.00612776246152,0.314721278649,0.624338591862,0.401,0.45,0,0,2,792,3
-0.0914097617846,0.00533667388602,1.06525965855,0.378422165236,0.305,0.45,2,2,2,793,3
-0.0811986682893,0.110942220597,0.0215693764626,1.21846746543,0.367,0.45,3,3,2,794,3
-0.0826768831714,0.0934211660877,1.07461552137,0.330890901313,0.386,0.45,2,2,2,795,3
1.18224478713,-0.00191338561359,0.172642717897,0.428393647541,0.422,0.45,0,0,2,796,3
-0.0534555947116,1.03242339637,0.452391055871,0.315953437402,0.369,0.45,1,1,2,797,3
-0.0587616903211,0.0199998586018,0.0964943644783,1.07238132108,0.359,0.45,3,3,2,798,3
1.17954624015,0.114760602753,0.0711632439215,0.384417592418,0.418,0.45,0,0,2,799,3
-0.0676123449648,0.0704796878849,0.1365506244,1.04366544676,0.384,0.45,3,3,2,800,3
-0.059957670593,1.13908032948,0.0949282055628,0.295551523723,0.312,0.45,1,1,2,801,3
1.05948394788,0.0601489549323,0.23582748836,0.499512532994,0.402,0.45,0,0,2,802,3
-0.0543359065925,0.0109537374716,1.087891114,0.425365247303,0.313,0.45,2,2,2,803,3
-0.0486591947862,1.03076045567,0.215867649607,0.410567602753,0.31,0.45,1,1,2,804,3
-0.0512283731317,0.0295335767662,1.14451231062,0.450362718309,0.317,0.45,2,2,2,805,3
-0.0571014759071,0.0422497617665,0.206901870563,1.10997351295,0.353,0.45,3,3,2,806,3
-0.0548614167788,0.0499087301424,1.22699670702,0.555117581841,0.45,0.45,2,2,1,807,3
-0.0538040038215,1.10534514439,0.383844599692,0.372437926234,0.368,0.45,1,1,2,808,3
1.1058418527,0.153873782896,0.30674863925,0.395034237196,0.402,0.45,0,0,2,809,3
-0.083064977928,0.0585042080115,0.154310379083,1.05546565891,0.411,0.45,3,3,2,810,3
-0.0766114729719,1.17180616562,0.14075490167,0.266554633099,0.402,0.45,1,1,2,811,3
-0.0725697426156,-0.00532806971214,0.200480812676,1.2721996544,0.326,0.45,3,3,2,812,3
1.05675677712,0.192538892472,0.0844651110791,0.332999855718,0.332,0.45,0,0,2,813,3
-0.0730747733939,1.17699497999,0.122230748885,0.315259642072,0.294,0.45,1,1,2,814,3
-0.0731176089613,0.00268487838772,1.12947099722,0.431725774871,0.267,0.45,2,2,2,815,3
1.12285134901,0.00975159695122,0.0454346077173,0.677434353696,0.387,0.45,0,0,2,816,3
-0.0672406116741,1.07631687641,0.118497347147,0.163992008031,0.352,0.45,2,1,-1,817,3
-0.0592684556145,0.0943524802575,0.224127545553,1.07100034093,0.395,0.45,3,3,2,818,3
-0.0568468186545,0.0436425726758,1.07506056272,0.435635185373,0.36,0.45,2,2,2,819,3
1.17993574855,0.0260073754455,0.234752455095,0.560430831635,0.414,0.45,0,0,2,820,3
-0.0938113183182,1.24560186255,0.271555178392,0.321555145581,0.36,0.45,1,1,2,821,3
-0.0913090483904,0.0025285265089,1.12014129507,0.418798837658,0.307,0.45,3,2,-1,822,3
-0.0907356937574,1.22938284502,0.119279872065,0.332269924232,0.294,0.45,1,1,2,823,3
1.01329761115,0.118744699218,0.310985336068,0.557134349642,0.35,0.45,0,0,2,824,3
-0.0585067369926,0.0800446986663,0.315433986902,1.13879591583,0.376,0.45,3,3,2,825,3
1.14607079318,0.294839741018,0.159484984757,0.322570432903,0.444,0.45,0,0,2,826,3
-0.0851637457522,0.0531921073715,1.09214609282,0.426438486351,0.297,0.45,2,2,2,827,3
-0.0761581017553,0.173185907681,0.14229631787,1.19326102368,0.368,0.45,3,3,2,828,3
-0.0776209913345,0.0942238345527,1.03569972849,0.311235982936,0.409,0.45,2,2,2,829,3
-0.0721002454757,1.03062007563,0.244883549573,0.294530851849,0.359,0.45,1,1,2,830,3
-0.0767902665892,0.00212508668226,1.13190431859,0.517231586819,0.406,0.45,2,2,2,831,3
-0.0680928858604,1.08123206995,0.220130626044,0.360654654194,0.336,0.45,1,1,2,832,3
-0.0774490530744,0.0240903783914,1.1064034076,0.673304231424,0.333,0.45,3,2,-1,833,3
1.02184315503,0.169024557899,0.0862090341425,0.481724813819,0.363,0.45,0,0,2,834,3
-0.0730486149256,1.01946558063,0.142223374515,0.320497031709,0.327,0.45,1,1,2,835,3
1.18185426185,0.138941022975,0.208766955036,0.48747670619,0.416,0.45,0,0,2,836,3
-0.0914020474938,0.0466539477293,0.155712149517,1.22592823508,0.387,0.45,3,3,2,837,3
-0.0917894904954,1.09632629026,0.108418715523,0.234794729125,0.299,0.45,1,1,2,838,3
-0.0845707299753,0.00254259756155,1.11358199859,0.476957997878,0.271,0.45,2,2,2,839,3
1.23243730382,0.583599544805,0.16896873582,0.301975099683,0.453,0.45,0,0,1,840,3
-0.0632374695415,0.0204340526979,1.24062917021,0.286847909983,0.331,0.45,2,2,2,841,3
-0.0585990767449,0.018298581345,0.316264246252,1.43097428829,0.396,0.45,3,3,2,842,3
-0.0625926217868,-0.00231191564708,1.06158087942,0.375601533843,0.36,0.45,2,2,2,843,3
-0.054392549061,1.39405613897,0.22092380667,0.338977053636,0.302,0.45,1,1,2,844,3
1.49446324441,0.20903153646,0.10506544735,0.302524899798,0.26,0.45,0,0,2,845,3
-0.0925942287225,0.0556362033154,0.92043273708,1.01795358017,0.286,0.45,3,3,2,846,3
1.13946036932,0.157963206625,0.100188817699,0.394532517456,0.268,0.45,1,0,-1,847,3
-0.0581484336453,0.0488187658225,0.475543553135,1.04201425267,0.357,0.45,3,3,2,848,3
1.17282863066,0.248291635518,0.150076691188,0.489128935958,0.339,0.45,0,0,2,849,3
-0.0659508779751,0.0216572494148,1.08876862575,0.542560419553,0.281,0.45,2,2,2,850,3
1.10158762049,0.257079789936,0.204111076199,0.441709973606,0.375,0.45,0,0,2,851,3
-0.0415943466994,1.1666206259,0.166922360333,0.354182038591,0.321,0.45,1,1,2,852,3
-0.0411738142258,0.00751024092897,1.00209797075,0.438293639625,0.278,0.45,2,2,2,853,3
-0.0448944811637,0.00316355621702,0.0184681489887,1.1723871469,0.334,0.45,3,3,2,854,3
-0.0471008417136,0.0118120900117,1.11109002177,0.405546437611,0.312,0.45,2,2,2,855,3
-0.0409801139079,1.21498757915,0.15620922004,0.278325349557,0.282,0.45,1,1,2,856,3
-0.0436248505889,0.0716271506885,0.37890748697,1.09968049136,0.332,0.45,3,3,2,857,3
1.16621171765,0.0215339891847,0.131707266303,0.498644655794,0.402,0.45,0,0,2,858,3
-0.0820951794185,0.00717396152894,1.05015051138,0.551181061856,0.324,0.45,3,2,-1,859,3
-0.0731606888787,1.18175340189,0.0118549238143,0.40524350767,0.331,0.45,1,1,2,860,3
1.08168990083,0.0999675961708,0.279093899573,0.734041415988,0.366,0.45,0,0,2,861,3
-0.0785696329405,1.0374707998,0.0830797757988,0.293749994226,0.411,0.45,1,1,2,862,3
-0.0673495774641,0.0287970880965,1.12597012839,0.496435726256,0.33,0.45,2,2,2,863,3
-0.0682262128499,0.0115681762842,0.169679076681,1.12352556505,0.263,0.45,3,3,2,864,3
-0.0717539841588,0.0103943774869,1.04278611209,0.320907123321,0.437,0.45,2,2,2,865,3
2.03163339742,0.0103246552312,0.331527008847,0.431170592748,0.351,0.45,0,0,2,866,3
-0.0829023312112,0.0269323142167,1.07155065267,0.451253108135,0.302,0.45,2,2,2,867,3
1.82908356856,2.08703675849,0.692427140503,0.0224199850623,0.00800000000048,0.45,1,1,2,868,4
-0.00430844578285,1.1720033675,0.207639168502,0.206154898877,0.223,0.45,3,1,-1,869,4
0.0682296194487,0.129507085213,0.0931462565579,0.191699962025,0.7,0.45,0,-1,0,871,4
-0.0494220585353,0.843415079436,1.19490371564,0.495775950317,0.32,0.45,2,2,2,871,4
-0.0721906456194,0.0046251797023,0.0153938212618,1.19788418994,0.243,0.45,3,3,2,872,4
-0.0085470704125,0.739481032974,1.06866074242,0.429653611155,0.311,0.45,2,2,2,873,4
-0.0595153725341,1.02873346417,0.292905940648,0.428174819677,0.219,0.45,0,1,-1,874,4
-0.0612397872815,1.06642540894,0.683891449385,0.405539669956,0.362,0.45,1,1,2,875,4
1.08846586815,0.297271655455,0.116368035621,0.426438585774,0.386,0.45,0,0,2,876,4
-0.013179932109,0.0459316470462,1.2561297044,0.433404498773,0.266,0.45,3,2,-1,877,4
0.00703078611915,1.35534327384,0.287691254155,0.40891032368,0.285,0.45,1,1,2,878,4
-0.0394162873602,0.0569794007183,1.11226044505,0.595175239409,0.287,0.45,2,2,2,879,4
-0.0369474912177,1.11473782427,0.289982700747,0.548658827226,0.286,0.45,1,1,2,880,4
1.08016831863,-0.0398322543137,0.00772504261038,0.161727652118,0.293,0.45,0,0,2,881,4
-0.0197031154459,0.114581857319,1.17419347932,0.532289098871,0.299,0.45,2,2,2,882,4
-0.0402833526566,0.222435540585,0.177526424327,1.16706497822,0.343,0.45,3,3,2,883,4
-0.0410674428094,0.207820823188,1.17572422153,0.503949403733,0.315,0.45,2,2,2,884,4
1.24059526513,0.368363597418,0.40067526298,0.594694159237,0.367,0.45,0,0,2,885,4
-0.0701054891109,0.0123668470274,0.149105880661,1.32260803573,0.341,0.45,3,3,2,886,4
-0.0591765162664,1.18761028375,0.313401075557,0.301054471174,0.332,0.45,1,1,2,887,4
-0.0563611817396,0.0494796067238,0.414394971836,1.03082519126,0.363,0.45,3,3,2,888,4
1.30838229611,0.155616741351,0.193580472666,0.401433477683,0.363,0.45,0,0,2,889,4
-0.0692515065984,1.01909399984,0.14174827974,0.318029197169,0.342,0.45,1,1,2,890,4
-0.060267881339,0.060014699678,1.02343597226,0.56317604633,0.313,0.45,2,2,2,891,4
1.02824091725,0.243831271649,0.335986322235,0.562565215215,0.349,0.45,1,0,-1,892,4
-0.0593776236068,0.882522815153,1.00838644131,0.267028667307,0.383,0.45,2,2,2,893,4
-0.0704729115859,0.000617561337689,0.041709639181,1.17322462758,0.189,0.45,3,3,2,894,4
1.01747550658,0.377170855456,0.26296849289,0.409199902805,0.358,0.45,0,0,2,895,4
-0.0926702627253,0.0356640659405,1.01173920676,0.483663505181,0.273,0.45,2,2,2,896,4
1.04538120171,0.144805414208,0.298600471892,0.53990602742,0.379,0.45,0,0,2,897,4
-0.079158551205,0.0600464185351,0.280970359633,1.00708033042,0.375,0.45,3,3,2,898,4
-0.0766876890224,1.05842486612,0.253875223169,0.438576854227,0.422,0.45,1,1,2,899,4
-0.0796582971359,0.0633895545666,0.639819004437,1.00821152407,0.37,0.45,3,3,2,900,4
-0.077398416403,0.136246411753,1.06744736869,0.539675666196,0.315000000001,0.45,2,2,2,901,4
-0.0751156769522,1.23420245668,0.275454399544,0.502177346659,0.284000000001,0.45,1,1,2,902,4
1.03881440429,0.139417286509,0.160365673106,0.626800315936,0.319000000001,0.45,0,0,2,903,4
1.13511236005,0.153546175004,0.191740552483,0.584548322651,0.370000000001,0.45,1,0,-1,904,4
-0.0585318338388,0.0464761203581,1.02562558616,0.436777635878,0.285000000001,0.45,2,2,2,905,4
-0.0509851847044,1.05904244413,0.214244137041,0.273485703083,0.342000000001,0.45,0,1,-1,906,4
-0.0907020643051,0.0526617013226,1.0712240926,0.641105367012,0.342000000001,0.45,3,2,-1,907,4
1.04090786408,0.123534950627,0.123473191954,0.556680986098,0.370000000001,0.45,0,0,2,908,4
-0.0790279010043,0.0118770972757,1.09157765875,0.498243329712,0.299000000001,0.45,2,2,2,909,4
-0.0687026808141,0.0617645542388,0.184173404158,1.14643055415,0.349000000001,0.45,3,3,2,910,4
-0.0644224990683,0.0491095850719,1.27841600991,0.438504271938,0.342000000001,0.45,2,2,2,911,4
-0.0572029821828,1.12507116291,0.22911424963,0.54065921329,0.323000000001,0.45,1,1,2,912,4
-0.0569782606372,0.0411113472573,0.824380553375,1.05148923225,0.357000000001,0.45,3,3,2,913,4
-0.0223606751246,1.04262411227,0.0810612224473,0.554107357232,0.359000000001,0.45,1,1,2,914,4
1.16250816838,-0.00248383911094,0.105464830116,0.563058307581,0.402000000001,0.45,0,0,2,915,4
-0.0745899774256,1.149813182,0.148260723269,0.505712952456,0.392000000001,0.45,1,1,2,916,4
-0.0700182229001,0.0245050800843,0.118851281938,1.11057438876,0.321000000001,0.45,3,3,2,917,4
-0.0674425559807,0.100743867886,1.04841840725,0.679552794271,0.314000000001,0.45,2,2,2,918,4
1.04527946735,0.382352468919,0.105045045405,0.501097543938,0.393000000001,0.45,0,0,2,919,4
-0.0849710491759,0.0374077506637,0.246399506341,1.12977778396,0.348000000001,0.45,3,3,2,920,4
1.13454886875,0.292689893572,0.187407691128,0.518210753762,0.456000000001,0.45,0,0,1,921,4
-0.0927258583406,0.0482417603775,1.04268655516,0.500550014809,0.357000000001,0.45,2,2,2,922,4
-0.0753612094701,1.03780397016,0.339197558361,0.582292796608,0.315000000001,0.45,1,1,2,923,4
1.07459205517,0.0678054588043,0.235710447612,0.613248498751,0.374000000001,0.45,0,0,2,924,4
-0.084855754092,1.02394138634,0.0945573238918,0.190945297589,0.351000000001,0.45,1,1,2,925,4
-0.0884814009966,1.07509620951,0.45413754429,0.494620992409,0.393000000001,0.45,2,1,-1,926,4
-0.0869630439357,0.00256581237778,0.215237900798,1.00356407703,0.284000000001,0.45,3,3,2,927,4
1.06709601151,0.0142316033494,0.205586682426,0.569653712594,0.463000000001,0.45,1,0,-1,928,4
-0.053440867711,1.0088336748,0.318412476804,0.476430989055,0.272000000001,0.45,0,1,-1,929,4
-0.109260490657,0.0718735064388,1.00350305306,0.509473548884,0.324000000001,0.45,3,2,-1,930,4
0.0674370492978,1.31080620095,0.150721804194,0.438404496294,0.267000000001,0.45,2,1,-1,931,4
1.17663644455,0.216839846545,0.101809972767,0.420522090874,0.390000000001,0.45,0,0,2,932,4
-0.111132597096,0.0283888892393,1.0787202606,0.473037337342,0.268000000001,0.45,2,2,2,933,4
-0.105499117618,0.0921167330312,0.315992243029,1.03494190778,0.276000000001,0.45,3,3,2,934,4
1.02226641577,0.0607278714096,0.258497166878,0.645901947939,0.348000000001,0.45,0,0,2,935,4
-0.0531396875482,1.17145766506,0.235340519183,0.347761656574,0.389000000001,0.45,1,1,2,936,4
-0.0576009032051,0.066158697982,1.01430741239,0.586582991806,0.312000000001,0.45,2,2,2,937,4
0.196362032042,1.15124642439,0.152895209341,0.418046140588,0.470000000001,0.45,1,1,1,938,4
-0.0479778092244,0.00254699345653,0.562341560195,1.0731422664,0.379000000001,0.45,3,3,2,939,4
-0.0552496379734,1.12589018359,0.0963459583748,0.180966846216,0.300000000001,0.45,1,1,2,940,4
-0.0598627525133,0.0104093917756,0.849670190877,1.00666185194,0.337000000001,0.45,3,3,2,941,4
1.17239870204,0.114397169058,0.038416461326,0.439075763987,0.408000000001,0.45,0,0,2,942,4
-0.0918715393316,1.05699694365,0.872864232857,0.186108465829,0.394000000001,0.45,2,1,-1,943,4
1.18060635867,-0.0197659240074,0.0145581014086,0.481712593602,0.407000000001,0.45,0,0,2,944,4
-0.0564563528589,-0.00152334131278,0.0629116340064,1.33099007968,0.286000000001,0.45,3,3,2,945,4
-0.0525355659847,0.0606937757581,1.05568991373,0.45491577612,0.307000000001,0.45,2,2,2,946,4
-0.0498359816721,1.08272531893,0.201711385972,0.458741428078,0.322000000001,0.45,1,1,2,947,4
-0.0463547756417,0.032530983369,1.08871898838,0.476976914136,0.389000000001,0.45,2,2,2,948,4
-0.0475819348079,0.00438267610202,0.0910529503244,1.06818036391,0.364000000001,0.45,3,3,2,949,4
-0.0498988141562,1.06803647187,0.0566529060403,0.455437458245,0.373000000001,0.45,1,1,2,950,4
1.27887937524,0.0683472048175,0.193878673201,0.630383894841,0.356000000001,0.45,0,0,2,951,4
-0.069475957235,1.1357497905,0.18727493621,0.32912517143,0.309000000001,0.45,1,1,2,952,4
1.05580739422,0.164409121508,0.262832777473,0.572716209696,0.386000000001,0.45,0,0,2,953,4
-0.0637662061633,0.0369774931373,1.08032215964,0.480133126138,0.354000000001,0.45,2,2,2,954,4
-0.0597389398722,0.0145533683008,0.152123728035,1.15766640306,0.350000000001,0.45,3,3,2,955,4
-0.0561425648099,0.00464238617287,1.04816491771,0.390125723353,0.409000000001,0.45,2,2,2,956,4
1.01408902503,0.0131523564305,0.0951740986325,0.4713254729,0.390000000001,0.45,0,0,2,957,4
-0.103822440654,0.0153997358695,0.608392521755,1.25758332716,0.343000000001,0.45,3,3,2,958,4
1.16913367787,0.0997526747924,0.0478936150222,0.415215062618,0.378000000001,0.45,0,0,2,959,4
-0.0618801418922,1.15978091295,0.279308773271,0.488568049857,0.409000000001,0.45,1,1,2,960,4
-0.0794808040589,0.0540670209171,1.05338473541,0.540060522839,0.320000000001,0.45,2,2,2,961,4
-0.0730551696347,0.0190029613112,0.277758829401,1.21575568172,0.367000000001,0.45,1,3,-1,962,4
-0.0755198012348,0.0183139153803,0.00575057623452,1.15442289008,0.367000000001,0.45,3,3,2,963,4
-0.0710751868738,1.14514160918,0.0767555211074,0.362971196926,0.352000000001,0.45,1,1,2,964,4
-0.0747488760265,0.0122944223682,0.294850513985,1.10760796529,0.336000000001,0.45,3,3,2,965,4
-0.074168647496,0.057506638545,1.1019059542,0.998459074987,0.389000000001,0.45,2,2,2,966,4
1.02072546572,0.00317684360237,0.279332988218,0.290905094879,0.367000000001,0.45,0,0,2,967,4
-0.095497729068,0.00813228531994,0.183787534438,1.03233267609,0.309000000001,0.45,3,3,2,968,4
1.01860883954,0.18941189499,0.089324703617,0.491346696903,0.363000000001,0.45,0,0,2,969,4
-0.10423999909,1.11736014962,0.150508766453,0.451757362193,0.305000000001,0.45,2,1,-1,970,4
-0.088265256096,1.12263925363,0.0980293784708,0.43923145606,0.350000000001,0.45,1,1,2,971,4
-0.092504072769,-0.00323348741438,1.12315660267,0.383709403463,0.304000000001,0.45,2,2,2,972,4
-0.0991352719216,-0.00307383698912,0.166993407627,1.07499440077,0.256000000001,0.45,3,3,2,973,4
0.17763473795,1.30565684674,0.146268048595,0.40160788275,0.400000000001,0.45,1,1,2,974,4
1.11550149772,0.0785973308249,0.210028844991,0.550184287898,0.407000000001,0.45,0,0,2,975,4
-0.0906193935294,1.07354372271,0.237293639169,0.312584312773,0.412000000001,0.45,1,1,2,976,4
1.05072656849,0.245892937355,0.276376559743,0.518935727855,0.430000000001,0.45,0,0,2,977,4
-0.066638076856,0.0221352936623,0.0575050295311,1.10954045781,0.368000000001,0.45,3,3,2,978,4
-0.0623031433077,0.0881631873585,1.0594542923,0.382331943842,0.286000000001,0.45,2,2,2,979,4
-0.0603091152444,1.01002881136,0.217228377699,0.30250407859,0.354000000001,0.45,0,1,-1,980,4
-0.0555689973632,1.11075903566,0.244985571722,0.384028650889,0.201000000001,0.45,2,1,-1,981,4
0.263443461204,0.0109359398969,0.229509015365,1.35046357361,0.421000000001,0.45,3,3,2,982,4
0.220883894189,1.11397904186,0.0779514894119,0.287630194505,0.346000000001,0.45,1,1,2,983,4
-0.0578262694682,0.0206004079069,1.09363630547,0.398897861761,0.377000000001,0.45,2,2,2,984,4
-0.0582678553584,1.13062760968,0.201322110906,0.30143838947,0.420000000001,0.45,1,1,2,985,4
-0.061891842286,0.0376702116866,0.18991020279,1.02108723968,0.370000000001,0.45,3,3,2,986,4
1.16202759626,0.217343478631,0.240684029451,0.401257822315,0.424000000001,0.45,0,0,2,987,4
-0.0708793910943,1.06235957106,0.227163008454,0.236253888307,0.302000000001,0.45,1,1,2,988,4
-0.0723764590087,0.0493530557638,1.07570595169,0.443574773898,0.251000000001,0.45,2,2,2,989,4
1.10948950705,0.0612961016966,0.20954057213,0.584784532468,0.467000000001,0.45,0,0,1,990,4
-0.0986610332787,0.000110544833323,0.205753112489,1.0823426692,0.332000000001,0.45,3,3,2,991,4
-0.0972494658697,0.0730105503699,1.08186217579,0.314061475176,0.400000000001,0.45,2,2,2,992,4
-0.0966389251517,0.00618996959538,0.29505545455,1.28750259298,0.392000000001,0.45,3,3,2,993,4
1.02010719395,0.00189083432059,0.159031317579,0.350067295042,0.398000000001,0.45,0,0,2,994,4
-0.0972775910284,1.01592444621,0.328748846538,0.47323035804,0.424000000001,0.45,1,1,2,995,4
-0.0935604282372,0.0228183457208,0.474474958806,1.06653205615,0.323000000001,0.45,3,3,2,996,4
-0.091587130699,1.03665614817,0.135413932824,0.309136712749,0.288000000001,0.45,1,1,2,997,4
1.12939593001,0.029643390551,0.285088955,0.425677104229,0.366000000001,0.45,0,0,2,998,4
-0.0804381032812,0.0359771532068,1.13177434591,0.571674352065,0.314000000001,0.45,2,2,2,999,4
-0.0779864053555,1.01538556658,0.263807668175,0.312575625085,0.356000000001,0.45,1,1,2,1000,4
-0.0748943736052,0.0240331159673,1.02263423928,0.461789844883,0.323000000001,0.45,2,2,2,1001,4
1.07629118522,0.115773533066,0.151006526963,0.494724032316,0.333000000001,0.45,0,0,2,1002,4
-0.0866520729715,0.0592200077655,0.326352381773,1.11171019286,0.303000000001,0.45,3,3,2,1003,4
1.19433678834,0.170120123365,0.191037799746,0.511909642637,0.316000000001,0.45,0,0,2,1004,4
-0.0884783417207,0.0362295239529,1.01897801215,0.518652876026,0.251000000001,0.45,2,2,2,1005,4
-0.0851508819214,0.153094706667,0.211704027607,1.05470079155,0.319000000001,0.45,3,3,2,1006,4
-0.0872580656285,0.100811564815,1.0160256065,0.314783500599,0.357000000001,0.45,2,2,2,1007,4
-0.0779478669026,1.11420544094,0.227240330246,0.30007190703,0.338000000001,0.45,1,1,2,1008,4
1.19904182701,0.204822470049,0.360023917319,0.489154461541,0.344000000001,0.45,0,0,2,1009,4
-0.0816740110002,1.08863631668,0.306254596341,0.342776689497,0.367000000001,0.45,1,1,2,1010,4
-0.0845123788885,0.0108102861533,0.673644041729,1.11057982038,0.318000000001,0.45,3,3,2,1011,4
-0.0791290743922,1.05535474037,0.221682997654,0.481002942589,0.422000000001,0.45,1,1,2,1012,4
-0.0791673133218,0.388968067602,1.15073778087,0.606361060643,0.392000000001,0.45,2,2,2,1013,4
1.12740044055,0.235515102478,0.289904846621,0.612343110403,0.346000000001,0.45,0,0,2,1014,4
-0.0716055653506,0.0415850073513,1.05259663465,0.575693787511,0.325000000001,0.45,3,2,-1,1015,4
1.08943619556,0.180830682909,0.143760883127,0.547337721111,0.408000000001,0.45,0,0,2,1016,4
-0.0950972730756,0.0729327064006,1.18583544306,0.770543642093,0.322000000001,0.45,2,2,2,1017,4
-0.0965904737867,0.162447115113,0.231849230362,1.26927129795,0.351000000001,0.45,3,3,2,1018,4
-0.0928883481394,1.04774231038,0.159278892403,0.285396503047,0.287000000001,0.45,1,1,2,1019,4
-0.0863659367239,0.0802865964577,0.264076953117,1.25061756008,0.330000000001,0.45,3,3,2,1020,4
-0.0841189768826,0.149950917681,1.17076210984,0.820394713107,0.301000000001,0.45,2,2,2,1021,4
-0.0898362208213,1.26823611155,0.342829778998,0.400214906259,0.298000000001,0.45,1,1,2,1022,4
1.08704515598,0.187388318852,0.289649399025,0.344617800674,0.361000000001,0.45,0,0,2,1023,4
-0.104880140242,1.02448298012,0.218154930184,0.182943177708,0.345000000001,0.45,1,1,2,1024,4
-0.100140924182,0.0581368905403,0.37242263126,1.02330195375,0.317000000001,0.45,3,3,2,1025,4
-0.0991348034697,0.238320715447,1.04197312202,0.321177740921,0.283000000001,0.45,2,2,2,1026,4
1.05821502294,0.091725097048,0.229768124534,0.520735726074,0.390000000001,0.45,0,0,2,1027,4
-0.0904468158209,0.0254363086132,0.237477734605,1.09914849167,0.374000000001,0.45,3,3,2,1028,4
1.19090623591,0.264275980303,0.217711696202,0.362357370298,0.428000000001,0.45,0,0,2,1029,4
-0.077344306959,0.0879388341938,1.12054360925,0.367731891688,0.281000000001,0.45,2,2,2,1030,4
-0.0725820551806,0.131485489223,1.02764331152,0.519958828096,0.404000000001,0.45,3,2,-1,1031,4
-0.0684358201434,1.00628559213,0.187948792458,0.267545693436,0.417000000001,0.45,1,1,2,1032,4
1.65699439988,0.0733389255942,0.21281910504,0.630568078609,0.364000000001,0.45,0,0,2,1033,4
-0.0732665937042,1.0157678556,0.161485271838,0.381960796117,0.294000000001,0.45,1,1,2,1034,4
-0.0626529316717,0.0552270132242,1.09198752169,0.503755996391,0.312000000001,0.45,2,2,2,1035,4
-0.0616769201737,1.09509276024,0.250722850077,0.419677934482,0.366000000001,0.45,1,1,2,1036,4
-0.0610191759167,1.0137741424,0.338146677661,0.49581629319,0.442000000001,0.45,0,1,-1,1037,4
-0.0748616568744,0.0248681741898,0.268681608687,1.12012427057,0.381000000001,0.45,3,3,2,1038,4
-0.0670106257644,0.0103559619734,1.07200300498,0.494079363105,0.285000000001,0.45,2,2,2,1039,4
-0.0633406535007,0.00478973378963,0.147647801123,1.38066584202,0.366000000001,0.45,3,3,2,1040,4
1.14882170663,-0.00875079765089,0.135813875206,0.499290801721,0.441000000001,0.45,0,0,2,1041,4
-0.0715987757295,0.083218488025,1.21768305704,0.378457603228,0.336000000001,0.45,2,2,2,1042,4
1.26051121349,0.0138790921611,0.341072007449,0.643999924587,0.347000000001,0.45,0,0,2,1043,4
-0.0715432184192,1.22148029395,0.365555357925,0.347204070797,0.294000000001,0.45,1,1,2,1044,4
-0.0602069782708,0.0379635994803,1.03920613571,0.542903794739,0.269000000001,0.45,2,2,2,1045,4
-0.0338612154206,1.02366004505,0.289031543672,0.301655095033,0.380000000001,0.45,1,1,2,1046,4
-0.0670919182616,0.00268415653419,0.0522433113165,1.06480048064,0.318000000001,0.45,3,3,2,1047,4
-0.0628651163825,1.04743463488,0.204095249383,0.181358467461,0.430000000001,0.45,1,1,2,1048,4
1.41294221727,0.17172905824,0.219100260647,0.411317205962,0.369000000001,0.45,0,0,2,1049,4
-0.0657469137625,0.0798722033419,1.13830809079,0.441512271924,0.317000000001,0.45,2,2,2,1050,4
-0.0663427982192,0.0683388749414,0.0390960315024,1.03800783824,0.332000000001,0.45,3,3,2,1051,4
1.21877659246,0.155551439431,0.165817381826,0.426924171498,0.355000000001,0.45,0,0,2,1052,4
-0.0581369081908,0.0181197896752,0.566909713417,1.18957379144,0.337000000001,0.45,3,3,2,1053,4
-0.0568251620227,0.117129191264,1.08043103584,0.584282652314,0.304000000001,0.45,2,2,2,1054,4
-0.0528368311464,1.03322716751,0.289638153444,0.561355142476,0.305000000001,0.45,1,1,2,1055,4
-0.0540423642419,0.0181779953997,1.08927980865,0.525444412792,0.317000000001,0.45,2,2,2,1056,4
1.11940584646,-0.0303241934994,0.0135759695179,0.444032009215,0.381000000001,0.45,0,0,2,1057,4
-0.0705072759369,1.10674879525,0.158881557144,0.38334587438,0.416000000001,0.45,1,1,2,1058,4
-0.0793048398172,0.0182042329157,0.11373378129,1.22277020936,0.291000000001,0.45,3,3,2,1059,4
-0.0704485472521,1.14017775822,0.0758917446882,0.285542028476,0.274000000001,0.45,1,1,2,1060,4
-0.072217518114,0.0270455337802,0.427872869516,1.21909131002,0.296000000001,0.45,3,3,2,1061,4
-0.0658102319694,1.03985938425,0.0933872297709,0.405706420896,0.368000000001,0.45,0,1,-1,1062,4
-0.0583298616442,-0.00120611957877,1.01638387109,0.693129480915,0.355000000001,0.45,2,2,2,1063,4
-0.0527794688472,-0.00394589255729,0.318356831918,1.09516183729,0.348000000001,0.45,3,3,2,1064,4
0.0124274237793,0.276099410889,1.28698842977,0.487891474601,0.414000000001,0.45,2,2,2,1065,4
1.45343454977,0.284227580569,0.0453992806891,0.379157873815,0.399000000001,0.45,0,0,2,1066,4
-0.0283064452954,0.00943495775791,1.01195544501,0.87549890834,0.408000000001,0.45,3,2,-1,1067,4
0.0733816785799,1.07818064927,0.0157020910986,0.0584041777941,0.310000000001,0.45,1,1,2,1068,4
-0.0542032733879,0.0594426661791,1.04641271788,0.607761633991,0.282000000001,0.45,2,2,2,1069,4
-0.0552616014181,1.1620222924,0.241927984077,0.476664871163,0.338000000001,0.45,1,1,2,1070,4
1.06590179957,0.0143220355157,0.261747786846,0.609189450627,0.386000000001,0.45,0,0,2,1071,4
1.00640263054,0.0014564385227,0.250039902783,0.525488757908,0.416000000001,0.45,1,0,-1,1072,4
1.17925718366,0.0110443812565,0.324055441306,0.60371971953,0.451000000001,0.45,0,0,1,1073,4
-0.0531327339722,-0.000281683559949,0.313920941296,1.06777493192,0.354000000001,0.45,3,3,2,1074,4
-0.0432217411154,0.227557487691,1.12703335249,0.477191352462,0.323000000001,0.45,2,2,2,1075,4
-0.0466010050994,0.0948198179838,0.510455396821,1.1758507355,0.407000000001,0.45,3,3,2,1076,4
1.03685349341,0.409822682167,0.0882704665723,0.362610443766,0.400000000001,0.45,0,0,2,1077,4
-0.0574285651175,1.0261034963,0.205265034607,0.380911659205,0.273000000001,0.45,2,1,-1,1078,4
1.0592038988,0.681936417764,0.137772460355,0.562201389404,0.438000000001,0.45,0,0,2,1079,4
-0.0606539415427,1.02090916069,0.215121347313,0.393363694481,0.521000000001,0.45,1,1,1,1080,4
-0.0610881706203,0.0105638961491,0.145651166702,1.20284912712,0.343000000001,0.45,3,3,2,1081,4
-0.0541290404575,1.1772598763,0.248340119049,0.0735511723544,0.396000000001,0.45,1,1,2,1082,4
-0.0642464308614,0.148033961995,1.19037014248,0.508961427105,0.253000000001,0.45,2,2,2,1083,4
1.2057485993,0.236795498017,0.239088972088,0.591342519978,0.276000000001,0.45,1,0,-1,1084,4
0.266024250561,0.19552902051,0.218466547636,0.527800146964,0.7,0.45,2,-1,0,1086,5
0.0936763435301,0.139375478094,0.184301697743,1.09696407276,0.7,0.45,3,-1,0,1087,5
0.0936763435301,0.139375478094,0.184301697743,1.09696407276,0.0040000000006,0.45,0,3,-1,1087,5
-0.0755848144535,1.10338010377,0.217563616054,0.373051466162,0.398000000001,0.45,1,1,2,1088,5
-0.0699885144646,0.0910874321459,1.17789823973,0.601617902665,0.237000000001,0.45,3,2,-1,1089,5
-0.0304209077849,1.184569562,0.036958929951,0.497519264069,0.253000000001,0.45,1,1,2,1090,5
1.30889210685,0.466133658952,0.190186029855,0.600241246304,0.304000000001,0.45,0,0,2,1091,5
-0.00019444561289,0.104074346418,0.597609648205,1.2981303914,0.333000000001,0.45,3,3,2,1092,5
-0.0162697992336,0.136983661284,1.05093643304,0.579703921973,0.268000000001,0.45,2,2,2,1093,5
0.0940872441008,1.2575848885,0.341038256953,0.631817150085,0.264000000001,0.45,1,1,2,1094,5
0.0748750617812,0.201705698214,1.1334873382,0.766512054496,0.384000000001,0.45,2,2,2,1095,5
1.13481953976,0.178625003997,0.315230860533,0.732406344241,0.312000000001,0.45,0,0,2,1096,5
-0.0289165303518,0.339412662624,1.25758659642,0.558179351745,0.293000000001,0.45,2,2,2,1097,5
-0.0820297301153,0.247245502442,0.200103134298,1.11920135584,0.349000000001,0.45,3,3,2,1098,5
-0.0799715397453,1.27360293853,0.17575835177,0.280087243118,0.281000000001,0.45,1,1,2,1099,5
1.31543924939,0.279674762524,0.237569137394,0.531014816064,0.339000000001,0.45,0,0,2,1100,5
-0.0772825810889,0.0051568381196,1.05800037263,0.528924538203,0.245000000001,0.45,1,2,-1,1101,5
-0.0651801901579,0.14255548451,1.22123173832,0.525278228063,0.219000000001,0.45,3,2,-1,1102,5
-0.0618636181304,1.00037603002,0.064385900736,0.303130777975,0.221000000001,0.45,0,1,-1,1103,5
-0.0465405495376,0.294285298666,1.04965933419,0.567715759995,0.311000000001,0.45,2,2,2,1104,5
1.01875914484,0.498737567716,0.0593073414198,0.410821747249,0.402000000001,0.45,0,0,2,1105,5
-0.0527138477985,-0.00481855995542,0.0215124684779,1.14623341492,0.388000000001,0.45,3,3,2,1106,5
-0.0442447568428,-0.00678350875497,1.05851465835,0.821330472335,0.351000000001,0.45,2,2,2,1107,5
-0.0397379169403,1.24308517234,0.372011532372,0.38012785049,0.225000000001,0.45,1,1,2,1108,5
-0.051810863923,1.1228750095,0.332775484102,0.482284554208,0.354000000001,0.45,2,1,-1,1109,5
-0.0583627560481,-0.000310382980477,0.899264492454,1.21116179545,0.397000000001,0.45,3,3,2,1110,5
1.17865210132,0.3344192493,0.118444738382,0.313523662572,0.368000000001,0.45,0,0,2,1111,5
1.29603435683,0.0173152848818,0.180919554947,0.550849049042,0.325000000001,0.45,1,0,-1,1112,5
-0.0968965538272,1.13292621629,0.344019633968,0.515529684931,0.434000000001,0.45,0,1,-1,1113,5
-0.0783386517111,0.133807973558,1.08917986921,0.798971511495,0.351000000001,0.45,3,2,-1,1114,5
-0.0823792447486,1.21415404843,0.0593273916378,0.597566844897,0.302000000001,0.45,1,1,2,1115,5
-0.0828105505875,0.0121794704989,1.27498723699,0.567167071997,0.284000000001,0.45,2,2,2,1116,5
-0.0807967974492,1.01378408368,0.00627598500438,0.124247259425,0.295000000001,0.45,1,1,2,1117,5
-0.0837637036381,0.0435721240658,0.0721531640357,1.27302982979,0.368000000001,0.45,3,3,2,1118,5
-0.0850220422463,0.0434194340284,1.22773444947,0.310893552335,0.448000000001,0.45,2,2,2,1119,5
1.13995588608,-0.00170408823424,0.18528403336,0.509111110883,0.417000000001,0.45,0,0,2,1120,5
-0.106710430202,-0.00481581720536,1.07069364783,0.426809516065,0.330000000001,0.45,2,2,2,1121,5
-0.0981503152509,1.26844688864,0.229460150397,0.297018751436,0.315000000001,0.45,1,1,2,1122,5
1.28180258481,0.215037594014,0.0167520099062,0.231679701924,0.403000000001,0.45,0,0,2,1123,5
-0.064504056011,0.00250037938326,1.07139375326,0.197911126124,0.311000000001,0.45,3,2,-1,1124,5
-0.0278846502679,1.17289841246,0.0335515197324,0.282446929714,0.247000000001,0.45,1,1,2,1125,5
-0.0592746127729,0.0501574260183,1.00489269341,0.576258372915,0.285000000001,0.45,3,2,-1,1126,5
1.13753733203,0.211654920251,0.159282196352,0.538809818471,0.319000000001,0.45,0,0,2,1127,5
-0.0610367300239,-0.00964814890213,1.06693043534,0.577169787214,0.297000000001,0.45,2,2,2,1128,5
-0.0599172560063,0.077038643012,0.0253268872614,1.1502917847,0.363000000001,0.45,3,3,2,1129,5
-0.0580196313271,0.0498251760448,1.063428545,0.380859484867,0.423000000001,0.45,2,2,2,1130,5
1.19870553895,0.0960761106525,0.110974858815,0.487237677771,0.469000000001,0.45,0,0,1,1131,5
-0.0648576230166,1.01770605295,0.218092351583,0.319189041246,0.442000000001,0.45,1,1,2,1132,5
-0.0637757783255,-0.00575940760184,1.05644461966,0.581465424533,0.336000000001,0.45,2,2,2,1133,5
-0.0678987130971,-0.0125619915785,0.0627272193337,1.20537500617,0.281000000001,0.45,3,3,2,1134,5
-0.0597204094789,1.16011210077,0.258982281798,0.485245332375,0.311000000001,0.45,1,1,2,1135,5
1.41652025305,0.00614189963925,0.211902216092,0.526856830526,0.324000000001,0.45,0,0,2,1136,5
-0.0631737893273,0.00440117555906,1.05706294901,0.380718069645,0.305000000001,0.45,3,2,-1,1137,5
-0.0612063901916,1.04523012148,0.147484876763,0.394300668324,0.240000000001,0.45,0,1,-1,1138,5
-0.0598270295334,0.018520550753,1.00842569362,0.507033779267,0.238000000001,0.45,1,2,-1,1139,5
-0.0648477769519,-0.000912723451195,0.259716634318,1.00552169527,0.367000000001,0.45,2,3,-1,1140,5
1.16584715691,-0.00260765057642,0.184076399955,0.590880264811,0.374000000001,0.45,0,0,2,1141,5
-0.0677458815548,0.0173156390661,1.13880937692,0.47871434206,0.395000000001,0.45,2,2,2,1142,5
-0.0726786288944,1.01991204761,0.161865703986,0.23267996102,0.404000000001,0.45,1,1,2,1143,5
-0.0768500913656,-0.0143790752777,0.0559891726605,1.38454521268,0.312000000001,0.45,3,3,2,1144,5
-0.0684797782018,0.0822481987597,1.15724821296,0.234137087709,0.361000000001,0.45,2,2,2,1145,5
-0.0715565346682,1.17657009253,0.269852042084,0.415606058404,0.295000000001,0.45,1,1,2,1146,5
-0.068438157743,0.0798923644759,0.372490488744,1.0611234326,0.356000000001,0.45,3,3,2,1147,5
1.19039884239,0.251263821407,0.191111603195,0.422789329611,0.363000000001,0.45,0,0,2,1148,5
-0.0759514847985,1.11120335794,0.177454795769,0.403607571635,0.303000000001,0.45,1,1,2,1149,5
1.01266882271,0.291513699894,0.34102257215,0.722406883081,0.425000000001,0.45,0,0,2,1150,5
-0.0665823984054,0.0476156518291,0.510207083044,1.21116823093,0.351000000001,0.45,3,3,2,1151,5
-0.0399677957138,0.0802276783967,1.01252624829,0.650337734116,0.428000000001,0.45,2,2,2,1152,5
1.31893346938,0.150142494584,0.233509871618,0.713348112804,0.438000000001,0.45,0,0,2,1153,5
-0.0685511436524,0.043247336612,1.14173418217,0.469753681938,0.329000000001,0.45,2,2,2,1154,5
-0.0695649189911,0.0537572071457,0.241309740537,1.01298427492,0.393000000001,0.45,3,3,2,1155,5
-0.0608683849854,1.22698264705,0.160344231444,0.242509299574,0.411000000001,0.45,1,1,2,1156,5
-0.0583866951419,0.0443019404736,1.0407890346,0.500269292617,0.258000000001,0.45,2,2,2,1157,5
1.03069167169,0.0750670430027,0.252150997396,0.476359101441,0.263000000001,0.45,0,0,2,1158,5
-0.0683395438902,1.03901876108,0.296388363005,0.469677681575,0.354000000001,0.45,1,1,2,1159,5
-0.0670468137947,0.0333850870412,0.18696340975,1.18696641427,0.295000000001,0.45,3,3,2,1160,5
-0.0634902552521,1.0196430823,0.183210832431,0.332704871959,0.333000000001,0.45,1,1,2,1161,5
1.28076963212,0.0359704611297,0.193866575298,0.624968501703,0.402000000001,0.45,0,0,2,1162,5
-0.101534208678,0.0366728338743,1.0010995378,0.570152239257,0.320000000001,0.45,3,2,-1,1163,5
1.21707090695,0.229777391181,0.104619172435,0.517513131473,0.401000000001,0.45,0,0,2,1164,5
