force_0,force_1,force_2,force_3,rt,rt_threshold,target_finger,selected_finger,score,trial,run
0.321225941847,1.10024047049,0.252780636451,0.146437675117,0.592,0.45,1,1,1,0,0
0.262266390415,0.109858350525,1.10863784706,0.207091107191,0.432,0.45,2,2,2,1,0
0.324683214208,1.13614933052,0.271248793162,0.540319974637,0.408,0.45,0,1,-1,2,0
0.268267110533,0.12040822159,0.80144134043,1.06789822386,0.424,0.45,3,3,2,3,0
0.398565828764,1.05786435302,0.132878559364,0.426002504015,0.274,0.45,0,1,-1,4,0
0.364768716239,0.0552764658034,1.08488717506,0.247089431226,0.363,0.45,2,2,2,5,0
0.253775164949,0.0685149731281,0.720298955809,1.02286768519,0.441,0.45,3,3,2,6,0
0.318026594862,0.451901265862,1.05728315374,0.356909776914,0.399,0.45,2,2,2,7,0
0.340495379909,1.0441857207,0.208932706774,0.266700998836,0.333,0.45,1,1,2,8,0
0.217093019994,0.16086035595,0.429845833472,1.003168975,0.424,0.45,3,3,2,9,0
0.341242890837,1.04261485382,0.0839230648822,0.402848262046,0.319,0.45,1,1,2,10,0
1.06075900573,0.181830123136,0.0640077358741,0.250131521152,0.341,0.45,0,0,2,11,0
1.07955860812,0.404591288006,0.298918699679,0.175890722572,0.477,0.45,1,0,-1,12,0
1.0295801496,0.16226539396,0.0641178887563,0.188743653264,0.416,0.45,0,0,2,13,0
0.195516877699,0.120868834688,1.00724751964,0.225930664488,0.4,0.45,2,2,2,14,0
0.28778158398,0.122685687366,0.173651093847,1.00229787032,0.434,0.45,3,3,2,15,0
1.02130219748,0.309307476067,0.0675776687244,0.314940091024,0.46,0.45,0,0,1,16,0
0.151525428649,0.0372201115527,0.0499507358235,0.445902777503,0.7,0.45,3,-1,0,18,0
0.239394939259,0.5561913456,1.00447974542,0.352850638863,0.534,0.45,2,2,1,18,0
0.28493970785,1.0234652857,0.118849087007,0.160188137348,0.356,0.45,1,1,2,19,0
0.229327946507,0.066773270519,0.574031024708,1.02300514218,0.422,0.45,2,3,-1,20,0
1.14994746337,0.0550797622549,0.127094751785,0.186143478373,0.428,0.45,0,0,2,21,0
0.323024150222,1.02710638913,0.104538011461,0.128596276892,0.316,0.45,1,1,2,22,0
0.125453415215,0.0355966707708,0.437279204382,1.04407230798,0.348,0.45,3,3,2,23,0
0.330535250124,1.12992457401,0.0924812730732,0.281672744647,0.304,0.45,1,1,2,24,0
1.20552459836,0.134577106189,0.0825377626599,0.182290309076,0.291,0.45,0,0,2,25,0
0.272899353234,0.100832791208,1.15387166402,0.161652513727,0.341,0.45,2,2,2,26,0
0.243048783448,0.0357628781377,0.358848195933,1.08897700964,0.392,0.45,3,3,2,27,0
1.00349603299,0.0194959330688,0.0789353546618,0.25988135374,0.4,0.45,0,0,2,28,0
0.202722991702,0.0478044024676,0.220356403876,1.06486563643,0.381,0.45,3,3,2,29,0
0.192424396827,0.0513203224834,1.10010401496,0.602660340974,0.461,0.45,2,2,1,30,0
0.586615023175,1.00330009688,0.210488239045,0.195990900475,0.388,0.45,1,1,2,31,0
0.147543312145,0.0542341260488,1.05148943326,0.15729553993,0.412,0.45,2,2,2,32,0
1.14178470557,0.0171862201069,0.114544173883,0.177674397369,0.32,0.45,0,0,2,33,0
0.672462064308,1.07857050178,0.250191369421,0.178977153619,0.43,0.45,1,1,2,34,0
0.213735808737,0.0833677058056,0.195155433718,1.01273144461,0.407,0.45,3,3,2,35,0
0.365566757132,1.00949412354,0.039960800769,0.194037728422,0.291,0.45,1,1,2,36,0
0.141250543813,0.316141805046,1.07870519765,0.166417010115,0.41,0.45,2,2,2,37,0
0.215538828736,0.0351375118233,0.730315105288,1.04477405671,0.471,0.45,3,3,1,38,0
1.1230162429,0.0189349387644,0.0746374508839,0.18056924811,0.393,0.45,0,0,2,39,0
0.268584298546,0.0184415510341,0.180492417247,1.10966199461,0.438,0.45,3,3,2,40,0
0.330976435886,0.0557316570832,1.07927848958,0.23415948144,0.395,0.45,2,2,2,41,0
1.00489250349,0.143808082089,0.155828479835,0.136875041498,0.353,0.45,0,0,2,42,0
0.343498893725,1.07474187888,0.26528069998,0.101639408463,0.31,0.45,1,1,2,43,0
0.301043028449,0.090890329508,0.202277774528,1.03320808241,0.378,0.45,3,3,2,44,0
0.600145487802,1.03768712849,0.115249529288,0.120711465024,0.341,0.45,1,1,2,45,0
1.16158322669,0.134857501069,0.0940572805793,0.136919649366,0.328,0.45,0,0,2,46,0
0.263459826631,0.0545317920074,1.22019025291,0.142411445107,0.306,0.45,2,2,2,47,0
0.655901539062,1.05389298577,0.0748024092033,0.302050302491,0.433,0.45,1,1,2,48,0
0.256563653904,0.317512214231,1.11826598602,0.115091580732,0.456,0.45,2,2,1,49,0
1.03458566829,0.0720452021988,0.11545111792,0.151762457797,0.36,0.45,0,0,2,50,0
0.376999471327,0.0811313092229,0.287493188704,1.01951460686,0.451,0.45,3,3,1,51,0
1.01854589724,0.223082699319,0.0640647539747,0.118775770132,0.395,0.45,0,0,2,52,0
0.330050950402,0.230034092885,1.0171329985,0.70651503331,0.427,0.45,2,2,2,53,0
0.282039924921,0.0514808251141,0.240880132829,1.03205235877,0.437,0.45,3,3,2,54,0
0.123105221608,0.613790283631,1.09010643835,0.210040899428,0.41,0.45,2,2,2,55,0
0.609568184048,1.00711318005,0.43153448415,0.0951512613001,0.322,0.45,1,1,2,56,0
0.146642286573,0.0682673650976,0.770584531454,1.01820309725,0.438,0.45,3,3,2,57,0
0.152127381783,1.04431759644,0.140794760625,0.211918926194,0.293,0.45,1,1,2,58,0
1.23486110573,0.195240010634,0.115111585198,0.165375114155,0.307,0.45,0,0,2,59,0
0.322697110342,1.26506782658,0.113383709011,0.0171211491769,0.263,0.45,1,1,2,60,0
0.264166784534,0.0867356500371,1.02316732904,0.0122049394599,0.327,0.45,3,2,-1,61,0
0.26434311182,0.0876747464207,1.02821200459,0.270225254963,0.34,0.45,2,2,2,62,0
1.1108661455,0.27421550557,0.117982596591,0.127121470796,0.348,0.45,0,0,2,63,0
0.272775018111,0.0501077085731,0.118166485698,0.413631298914,0.7,0.45,3,-1,0,65,0
0.297496498661,0.0488012919394,0.138951241604,1.02781988969,0.169,0.45,0,3,-1,65,0
0.383646686646,0.0490629033991,1.09310499717,0.248063562176,0.34,0.45,2,2,2,66,0
0.440740629409,0.240583216998,0.330539868901,1.09402511654,0.498,0.45,3,3,1,67,0
0.234286948374,1.06800375031,0.216464922147,0.216087588321,0.361,0.45,1,1,2,68,0
0.249659575021,0.0872738769236,1.03665627887,0.0843846499936,0.423,0.45,2,2,2,69,0
0.54534156263,1.10286192775,0.140748094808,0.116674458775,0.341,0.45,1,1,2,70,0
0.944124594864,1.15030401949,0.0674257871033,0.0997054094603,0.321,0.45,0,1,-1,71,0
0.580982803649,1.09056652692,0.26409609063,0.107404354968,0.298,0.45,1,1,2,72,0
0.165722599797,0.107076312895,1.03931332956,0.120948453804,0.309,0.45,3,2,-1,73,0
1.15303479291,0.293749812837,0.0973651730974,0.146147733257,0.351,0.45,0,0,2,74,0
0.307480972361,0.45681336411,1.13605414525,0.0833174022439,0.443,0.45,2,2,2,75,0
1.06830334151,0.0858131901583,0.110882981467,0.00172901358173,0.332,0.45,0,0,2,76,0
0.23727599581,0.0537222749104,1.01526973421,0.0814726656217,0.367,0.45,3,2,-1,77,0
0.241270361174,0.0476025180905,1.10108453758,0.117854065378,0.376,0.45,2,2,2,78,0
0.52526385547,0.0469481807721,0.224700975374,1.02948167996,0.416,0.45,3,3,2,79,0
0.590313871653,1.11032164713,0.119202912813,0.17936162098,0.454,0.45,1,1,1,80,0
1.04018380967,0.082543114199,0.139590889406,0.0768749222395,0.315,0.45,0,0,2,81,0
1.01487271155,0.109126884158,0.336610881709,0.0189852363325,0.356,0.45,1,0,-1,82,0
0.239943327736,0.0697224526795,1.09749409061,0.0575939428314,0.358,0.45,2,2,2,83,0
1.00925993621,0.0601224547471,0.0933233773711,0.168281560229,0.373,0.45,1,0,-1,84,0
0.368380690813,0.0373043450718,0.689094996726,1.03520056356,0.542,0.45,3,3,1,85,0
1.06738380875,0.031803033601,0.125507103234,0.143193021452,0.435,0.45,0,0,2,86,0
0.225997665527,0.0323283119258,1.01515061126,0.146209497851,0.392,0.45,2,2,2,87,0
0.385886438015,0.0348561047868,0.502273458775,1.02905727527,0.552,0.45,3,3,1,88,0
0.165331863965,0.0318871706371,1.18511270786,0.155320872929,0.522,0.45,2,2,1,89,0
1.05518438354,0.408670508433,0.18381475068,0.0871148983262,0.609,0.45,0,0,1,90,0
0.0840380322321,1.16338602027,0.157945090903,-0.026620048257,0.43,0.45,1,1,2,91,0
0.151427068495,0.147563686127,1.07047814377,0.0438360566335,0.383,0.45,2,2,2,92,0
0.82800994772,1.07161140409,0.207476703689,-0.000967725047042,0.371,0.45,1,1,2,93,0
1.11855215951,0.18563181671,0.085480800435,0.0231029909252,0.323,0.45,0,0,2,94,0
0.277768768521,0.192023214491,0.483242057706,1.00191082878,0.372,0.45,3,3,2,95,0
0.516797108036,1.14637548966,0.262752462639,0.161315949902,0.351,0.45,1,1,2,96,0
0.446664277375,0.104207608531,0.762099251432,1.07507208361,0.45,0.45,3,3,1,97,0
0.136209141871,0.0859085175853,1.0568709092,0.21864420074,0.342,0.45,2,2,2,98,0
1.17506401542,0.041584980522,0.167517202564,0.161744313289,0.308,0.45,0,0,2,99,0
0.434401405484,0.408211661058,1.03909442186,0.042091226241,0.311,0.45,2,2,2,100,0
0.35262250853,0.0562716071657,1.0857283794,0.0333151149765,0.335,0.45,3,2,-1,101,0
1.04626727643,0.0261252547222,0.632940302632,0.00946344953376,0.431,0.45,0,0,2,102,0
0.494481685895,1.04046893623,0.189274779584,0.0237356994064,0.36,0.45,1,1,2,103,0
0.37422103557,0.162748581582,1.0995206636,0.13132109994,0.336,0.45,2,2,2,104,0
1.11924509399,0.108924661705,0.259691732465,0.0933817037792,0.312,0.45,1,0,-1,105,0
1.10058906453,0.154297541021,0.123464188839,0.0438098458944,0.375,0.45,0,0,2,106,0
0.225987726739,0.0974437275488,1.02001809051,0.0726767586197,0.384,0.45,3,2,-1,107,0
0.308016604719,1.14178911324,0.140047626779,0.0660921775365,0.373,0.45,1,1,2,108,0
1.04151106339,0.0894264550096,0.209139880389,0.0220266879084,0.32,0.45,0,0,2,109,0
0.330156370902,0.0936610392282,1.03198503465,0.0634024011382,0.33,0.45,3,2,-1,110,0
0.199783040168,0.0746142272513,1.07337725945,0.097631042222,0.399,0.45,2,2,2,111,0
1.15091981562,0.0335164737495,0.141842454363,0.0845167481976,0.358,0.45,0,0,2,112,0
0.234799878202,0.0300803536899,1.07725255353,0.00433431773101,0.302,0.45,2,2,2,113,0
0.0998150761045,0.0312114819312,0.0680498821975,0.252146643339,0.7,0.45,3,-1,0,115,0
0.490540068397,0.282564336873,1.02096450957,0.116803432717,0.546,0.45,1,2,-1,115,0
0.34103248749,0.0497547516391,0.28561551038,1.00072613702,0.471,0.45,3,3,1,116,0
1.0369580176,0.104330870899,0.162000832887,0.19536926221,0.515,0.45,0,0,1,117,0
0.399618536928,1.01111967907,0.340746676935,0.0824425284048,0.444,0.45,1,1,2,118,0
0.598585329124,1.04490706777,0.196768070886,0.0568717816269,0.345,0.45,2,1,-1,119,0
1.02121079531,0.140445523918,0.17293962718,0.163921939643,0.342,0.45,1,0,-1,120,0
1.07978088846,0.31653824803,0.233564255502,0.0296934786141,0.507,0.45,0,0,1,121,0
0.0726179826146,0.133961786491,1.00918861956,0.252376227601,0.506,0.45,3,2,-1,122,0
0.118788715592,0.247696539044,1.1561642899,0.0565385259062,0.43,0.45,2,2,2,123,0
0.407060992157,0.0748967034406,0.451046271098,1.12256400656,0.505,0.45,3,3,1,124,0
1.08773720818,0.16151312526,0.137488531001,0.165026093805,0.355,0.45,0,0,2,125,0
0.241846438783,0.130848837362,1.0165710068,0.128228232406,0.348,0.45,2,2,2,126,0
1.20157101773,0.0443555911305,0.204100884175,0.123153970995,0.275,0.45,0,0,2,127,0
0.344726943984,1.06545531401,0.686405737567,0.0169919130347,0.503,0.45,1,1,1,128,0
0.308825678796,0.164428121934,0.433029855432,1.05977949043,0.498,0.45,3,3,1,129,0
0.390932212286,1.11022086835,0.0889612005945,0.0813510634536,0.407,0.45,1,1,2,130,0
1.25494785464,0.180131822181,0.0945562236975,0.0943687283474,0.207,0.45,2,0,-1,131,0
1.04532895402,0.0861995001595,0.124947561052,0.0231995455378,0.318,0.45,1,0,-1,132,0
0.165762806986,0.262445345128,0.594075035552,1.10262744306,0.554,0.45,3,3,1,133,0
1.12667327343,0.185791905933,0.11601691948,0.184230149949,0.411,0.45,0,0,2,134,0
0.19099195908,0.120998225642,1.02568850632,0.120630671732,0.293,0.45,2,2,2,135,0
0.304577367102,0.101389590689,1.10863768932,0.151833675484,0.312,0.45,3,2,-1,136,0
0.449049689316,1.00154264326,0.097443642119,0.112101860939,0.374,0.45,2,1,-1,137,0
1.26471543204,0.283037679506,0.339729550584,0.0919861053284,0.343,0.45,0,0,2,138,0
0.270176410735,0.192307546787,0.833935619493,1.01774714697,0.508,0.45,3,3,1,139,0
0.422795970991,1.16517469805,0.454028944484,0.0752316287236,0.455,0.45,1,1,1,140,0
0.285575551386,0.100999962148,1.10315576823,0.0588800247194,0.383,0.45,2,2,2,141,0
0.640805735038,1.02192545851,0.157656765368,0.0216212164646,0.33,0.45,1,1,2,142,0
1.09337539087,0.64089448765,0.084898652513,-0.00453759345435,0.328,0.45,0,0,2,143,0
0.262910322125,1.047657479,0.11312371231,0.0378125556367,0.263,0.45,1,1,2,144,0
0.454051456804,0.310130427526,0.513396565286,1.05809007841,0.697,0.45,3,3,1,145,0
0.0417271617023,0.171950348183,1.1653013643,0.215698490101,0.514,0.45,2,2,1,146,0
1.01047404355,0.0549733906278,0.161111755685,0.112479896895,0.383,0.45,0,0,2,147,0
0.084258836133,0.121676901773,1.03361040499,-0.0160159170043,0.306,0.45,2,2,2,148,0
0.542756277711,0.245795825699,0.501830784089,1.01528548792,0.45,0.45,3,3,1,149,0
1.16253493575,0.672711774954,0.210562841193,0.140943689538,0.441,0.45,0,0,2,150,0
0.339017577896,0.0977061304914,0.575250384019,1.08854595153,0.473,0.45,3,3,1,151,0
0.219685785922,1.24379819929,0.641234600994,0.157108061067,0.473,0.45,1,1,1,152,0
1.15444348464,0.129854671424,0.0927142977917,0.121332436111,0.36,0.45,0,0,2,153,0
0.348905994086,1.09467890789,0.139495719541,0.0461744178642,0.29,0.45,1,1,2,154,0
0.289052652325,1.06840524373,0.167666980522,0.238147840779,0.316,0.45,2,1,-1,155,0
0.467928188102,1.02360735401,0.103608512512,0.0981841591399,0.335,0.45,1,1,2,156,0
1.13268650642,0.175438009027,0.0643699912567,0.0610107138445,0.391,0.45,0,0,2,157,0
0.230154979998,0.120564166399,1.05024232706,0.293981727635,0.59,0.45,3,2,-1,158,0
0.195427046091,0.0733360705147,1.04526978997,0.15781340901,0.47,0.45,2,2,1,159,0
1.08850317428,0.030670995041,0.182191289381,0.0700532734746,0.355,0.45,0,0,2,160,0
0.298210137699,0.0438086896782,1.09188289755,0.0444047785724,0.458,0.45,2,2,1,161,0
0.322595809521,0.0263765197223,0.281638547728,1.08629341745,0.505,0.45,3,3,1,162,0
1.11277010849,0.0240465981862,0.074906007803,0.172068591046,0.425,0.45,0,0,2,163,0
0.392916107463,1.0157947245,0.235454046637,0.0971245126067,0.368,0.45,1,1,2,164,0
0.134079401793,0.0944257755108,1.12670550179,0.0508096486999,0.316,0.45,2,2,2,165,0
1.19203348888,0.0208992493289,0.115294148059,0.554081282714,0.336,0.45,1,0,-1,166,0
0.225371081835,0.205084280703,0.349614551843,1.02023470008,0.431,0.45,3,3,2,167,0
0.423697943245,1.09100081791,0.177766216846,0.189316364309,0.382,0.45,1,1,2,168,0
1.26065917168,0.161396913187,0.222134117836,0.118275284495,0.406,0.45,0,0,2,169,0
0.0795780896217,0.0753934050712,1.11868117071,0.179303141257,0.342,0.45,2,2,2,170,0
0.241904644992,0.0333538849893,1.06444137563,0.185203503083,0.327,0.45,3,2,-1,171,0
0.443756037462,0.243622000984,1.00288713437,0.296316168734,0.433,0.45,2,2,2,172,0
1.30964279268,0.0421655233404,0.211216767186,0.204468204845,0.287,0.45,0,0,2,173,0
0.314975401716,0.0305580512869,0.826479185682,1.08908838945,0.405,0.45,3,3,2,174,0
1.05131327252,0.0311284554937,0.155303479695,0.398621137703,0.265,0.45,0,0,2,175,0
0.0475354409841,1.03975248739,0.278674403224,0.163226013133,0.28,0.45,1,1,2,176,0
0.216771272405,0.216812102861,1.06480271584,0.240868462432,0.405,0.45,3,2,-1,177,0
0.780540176004,1.06212707231,0.300496776727,0.213689708528,0.415,0.45,1,1,2,178,0
0.298464588703,0.202444296124,1.08665148142,0.234873065206,0.377,0.45,2,2,2,179,0
1.10035273388,0.0313716953205,0.213779257025,0.0401651477582,0.264,0.45,1,0,-1,180,0
0.173017150723,0.126987214488,1.02691666484,0.0959289581045,0.413,0.45,3,2,-1,181,0
0.373241427448,1.03114173203,0.158710427934,0.0663474955437,0.291,0.45,2,1,-1,182,0
1.00372600643,0.126930644017,0.130410791504,0.0658237441739,0.303,0.45,0,0,2,183,0
1.01605019556,0.0460291248961,0.237558040646,0.0889250947796,0.288,0.45,2,0,-1,184,0
0.0778887954787,0.046849057278,0.0364268669307,0.0218487615492,0.7,0.45,3,-1,0,186,0
0.0951940237044,0.0468587615868,0.140435907477,1.10526426216,0.158,0.45,0,3,-1,186,0
1.00049438091,0.432044283976,0.218971326512,0.145533026497,0.315,0.45,1,0,-1,187,0
0.135927206995,0.105367453537,1.00589254153,0.614005451402,0.39,0.45,2,2,2,188,0
0.48525325092,1.10943608751,0.499303695995,0.0889390915432,0.411,0.45,1,1,2,189,0
1.04149418282,0.265535338253,0.0363093961523,0.08429048337,0.204,0.45,0,0,2,190,0
0.498469208542,0.290160082688,0.458446349218,1.03767345671,0.505,0.45,3,3,1,191,0
0.477689639858,1.02722384906,0.208767546214,0.176592988429,0.388,0.45,1,1,2,192,0
0.265532696138,0.113569406812,1.03452013859,0.135046632149,0.375,0.45,2,2,2,193,0
1.11460700927,0.0404740273631,0.147038980578,0.0722951436106,0.298,0.45,0,0,2,194,0
0.306479676791,0.0302710010563,1.0862398044,0.0872661832671,0.389,0.45,3,2,-1,195,0
0.305013714772,0.0843525204707,1.2723509165,0.0663503613803,0.452,0.45,2,2,1,196,0
0.208004207411,0.0505653296382,0.383612049126,1.17043222135,0.498,0.45,3,3,1,197,0
1.18079066434,0.0377209926285,0.0852778256778,0.192948892264,0.386,0.45,0,0,2,198,0
0.0727315773805,0.0431298794893,1.06614436863,0.0924401728721,0.321,0.45,1,2,-1,199,0
1.22003282817,0.15386643561,0.26094123284,0.107276024308,0.368,0.45,0,0,2,200,0
0.227693870605,0.237425466932,1.10784587119,0.171913842188,0.345,0.45,2,2,2,201,0
0.671946773957,1.00262695652,0.37528077022,0.0077411769329,0.331,0.45,1,1,2,202,0
0.255782649054,0.177783976101,0.667677064572,1.06506903892,0.418,0.45,3,3,2,203,0
0.415518924686,1.08186766293,0.192072028792,0.0798553050837,0.332,0.45,1,1,2,204,0
0.270586414887,0.153189648976,1.26869110076,0.490881452874,0.368,0.45,2,2,2,205,0
1.05854984894,0.101322574426,0.222158654966,0.060609931434,0.278,0.45,0,0,2,206,0
0.421159864152,1.13666070184,0.358678254327,0.0283942411232,0.293,0.45,3,1,-1,207,0
0.384203144718,1.05298247587,0.11472956279,0.0832470012848,0.33,0.45,2,1,-1,208,0
0.423543138646,0.209761973462,0.697442719937,1.01444677026,0.487,0.45,3,3,1,209,0
1.03325472618,0.160618701726,0.183197577067,0.183066675698,0.467,0.45,0,0,1,210,0
0.496551914785,1.09184747756,0.257488020083,0.0858751418245,0.47,0.45,1,1,1,211,0
0.578490644815,0.155089114082,0.719881110643,1.05945184278,0.537,0.45,3,3,1,212,0
0.295017943072,1.1143377652,0.0841860850473,0.128807153741,0.415,0.45,1,1,2,213,0
1.13036460602,0.839838616821,0.105275443611,0.09090313255,0.387,0.45,0,0,2,214,0
0.338988398234,0.0332382511018,1.02027013072,0.0236316657005,0.32,0.45,2,2,2,215,0
1.03067895739,0.0302215717712,0.354859191407,0.103345889261,0.305,0.45,1,0,-1,216,0
1.0941285498,0.398057308404,0.251266451095,0.157405033832,0.545,0.45,0,0,1,217,1
0.182988828019,0.205321771988,1.10967670347,0.287833704644,0.436,0.45,2,2,2,218,1
0.415284998901,1.1093784277,0.311717847812,0.210225960894,0.296,0.45,1,1,2,219,1
0.286171585012,0.228701523322,0.730540787399,1.03930199495,0.381,0.45,3,3,2,220,1
0.321351297458,1.06289079022,0.173054011929,0.49442220143,0.343,0.45,1,1,2,221,1
0.181544419873,0.224856604826,1.0284571529,0.702905744545,0.409,0.45,2,2,2,222,1
0.309846491846,0.242940935808,0.281217382041,1.09445315055,0.452,0.45,3,3,1,223,1
0.23328324594,0.544165937135,1.17219735179,0.543042790305,0.491,0.45,2,2,1,224,1
1.17899104454,0.0880132381462,0.129775337378,0.266423717562,0.388,0.45,0,0,2,225,1
0.0450630753957,0.2406890247,0.385989897578,1.00540966878,0.407,0.45,3,3,2,226,1
1.01384450449,0.133741930547,0.071353715331,0.296753879483,0.324,0.45,0,0,2,227,1
0.750972502496,1.19008727265,0.172684015499,0.227731115087,0.515,0.45,1,1,1,228,1
1.00250028516,0.101665614869,0.0459922846965,0.197513467859,0.455,0.45,0,0,1,229,1
0.183467671248,0.0939033234133,1.01627611623,0.2602940863,0.327,0.45,2,2,2,230,1
0.366224114485,1.11224775367,0.167543787268,0.0974959279159,0.333,0.45,1,1,2,231,1
0.190576293639,0.186992383159,0.543649054316,1.10098780119,0.369,0.45,3,3,2,232,1
0.314551102952,0.731898057824,0.402457816062,1.12245092539,0.394,0.45,2,3,-1,233,1
0.199286512289,0.031570312024,1.00316528082,0.730351501402,0.392,0.45,3,2,-1,234,1
0.536524037751,1.21765197843,0.239191977516,0.250031177484,0.307,0.45,1,1,2,235,1
0.389493023606,1.028008783,0.0992800763013,0.137847766162,0.373,0.45,2,1,-1,236,1
1.06034919495,0.0239083122266,0.0568538722308,0.0401694505425,0.339,0.45,0,0,2,237,1
0.0577094978222,0.0389365720148,0.609389854524,1.06068686553,0.384,0.45,3,3,2,238,1
0.487560943321,1.05866279775,0.186151033777,0.193039140007,0.362,0.45,0,1,-1,239,1
0.342626846527,1.09127486579,0.123817914884,0.0916016401329,0.343,0.45,1,1,2,240,1
1.13669571204,0.052890075399,0.0726977416313,0.0517735674925,0.402,0.45,0,0,2,241,1
0.088756490818,0.0978592258641,1.00629379809,0.196745658752,0.334,0.45,2,2,2,242,1
0.164506603115,0.0291359326801,0.756220043396,1.07452044536,0.459,0.45,3,3,1,243,1
0.415727077606,1.07541535039,0.173452714353,0.197178389392,0.444,0.45,1,1,2,244,1
0.118529488995,0.0655669617445,0.235505927652,1.07908073577,0.424,0.45,3,3,2,245,1
0.171899499505,0.0849399054864,1.20928497555,0.470822505204,0.458,0.45,2,2,1,246,1
0.26003468949,1.04010916982,0.12392205547,0.230458084975,0.363,0.45,1,1,2,247,1
1.46162822307,0.172819165638,0.113544063089,0.112380564205,0.311,0.45,0,0,2,248,1
0.165100471041,1.05863891291,0.144736223205,0.156774709114,0.381,0.45,1,1,2,249,1
0.19653563912,0.138292366168,1.06662662911,0.15652505422,0.341,0.45,2,2,2,250,1
1.21875787311,0.0902083540271,0.0992724833768,0.132187713353,0.382,0.45,0,0,2,251,1
0.0491463342686,0.0651949026041,0.482384922688,1.03651902503,0.401,0.45,3,3,2,252,1
1.15550111852,0.141193870961,0.0651129075349,0.119628543011,0.336,0.45,0,0,2,253,1
0.2168149782,1.03761472966,0.168536548303,0.154847534233,0.367,0.45,1,1,2,254,1
0.194301231831,0.195887638012,1.14522800871,0.256102622208,0.302,0.45,3,2,-1,255,1
0.284450714679,0.111069526646,1.08054374844,0.180546863021,0.348,0.45,2,2,2,256,1
0.407475743401,1.02973999729,0.117917764954,0.0860993316123,0.389,0.45,1,1,2,257,1
0.0597598559666,0.118814386761,1.11132366227,0.105374747376,0.361,0.45,2,2,2,258,1
0.329059877291,0.142398146155,0.282833571933,1.07015071071,0.391,0.45,3,3,2,259,1
0.456716721346,1.06211386893,0.0993846249,0.164154794891,0.343,0.45,1,1,2,260,1
1.20891324795,0.118001183624,0.0867711397109,0.0978881401145,0.247,0.45,0,0,2,261,1
0.161874665115,0.180500230434,0.66472640386,1.0947751647,0.355,0.45,3,3,2,262,1
1.01352444404,0.329512602416,0.0977642273065,0.21438634529,0.412,0.45,0,0,2,263,1
0.0925964640153,0.077635093015,1.12338256642,0.131955619925,0.343,0.45,2,2,2,264,1
1.14777326477,0.118695596413,0.123718587526,0.0916423265007,0.312,0.45,0,0,2,265,1
0.347497053578,1.03040615379,0.207248777014,0.0575215111013,0.327,0.45,1,1,2,266,1
0.053549818409,0.113021653891,1.12899626652,0.127896998296,0.299,0.45,2,2,2,267,1
0.197365112031,0.121007849496,0.319926563889,1.14572880283,0.328,0.45,3,3,2,268,1
0.137363174142,0.0500957577084,1.13059539049,0.210162652798,0.281,0.45,2,2,2,269,1
0.356340488701,1.15195240799,0.166190486402,0.0869036559138,0.29,0.45,1,1,2,270,1
0.271208338256,0.101386800899,0.675168243111,1.07848735362,0.445,0.45,3,3,2,271,1
1.01808939529,0.100667254445,0.0593958713761,0.165258724159,0.365,0.45,0,0,2,272,1
0.0566973065618,0.693827417335,1.04704857434,0.170318653889,0.386,0.45,2,2,2,273,1
1.05737120424,0.0980572748959,0.117229947864,0.057343407479,0.329,0.45,0,0,2,274,1
0.0429912319111,0.162654965913,0.759035453312,1.07029965315,0.432,0.45,3,3,2,275,1
0.421747661373,1.07559783373,0.0865985990748,0.077338284785,0.341,0.45,1,1,2,276,1
1.1137081394,0.161189511303,0.197645856099,0.155045636395,0.345,0.45,0,0,2,277,1
0.0192078051812,0.0737356558744,1.01385551906,0.30065642778,0.329,0.45,3,2,-1,278,1
0.712267021603,0.337840325137,1.11350330232,0.415801829262,0.397,0.45,2,2,2,279,1
0.347168629245,1.1376144236,0.238394706372,0.173583805401,0.357,0.45,1,1,2,280,1
0.0927749370932,0.0748158628591,0.343515511012,1.01667988323,0.402,0.45,3,3,2,281,1
0.287742405167,1.28142637575,0.145890793308,0.269094753499,0.323,0.45,1,1,2,282,1
0.170154588596,0.0884458271468,1.10646617111,0.533803731767,0.379,0.45,2,2,2,283,1
1.11058180012,0.0798515326446,0.199522479462,0.181442930504,0.323,0.45,0,0,2,284,1
0.169749763588,0.0648994059717,1.00794409927,0.158857750587,0.291,0.45,2,2,2,285,1
0.134939196952,0.11594958578,0.519338796557,1.03505999124,0.41,0.45,3,3,2,286,1
1.11337922407,0.154808352557,0.127606109303,0.26897731274,0.428,0.45,0,0,2,287,1
0.275514733742,1.04081440742,0.163690963711,0.158746694664,0.364,0.45,1,1,2,288,1
1.05447089338,0.219425313548,0.14241592702,0.119254315764,0.34,0.45,0,0,2,289,1
0.247098082173,0.167647939787,1.01512016917,0.194209094755,0.315,0.45,3,2,-1,290,1
1.07494192299,0.150985620689,0.0925109793352,0.193718613527,0.314,0.45,2,0,-1,291,1
0.190274221068,0.0187405903239,1.0171774129,0.0783124722006,0.334,0.45,1,2,-1,292,1
0.184755551789,0.36925244382,1.09466459738,0.167763516967,0.392,0.45,2,2,2,293,1
0.182681663112,0.154030881957,0.213046025298,1.11228043354,0.459,0.45,3,3,1,294,1
0.401888895703,1.10105916254,0.0702910926651,0.19796565493,0.422,0.45,1,1,2,295,1
0.256818268494,0.113353510841,0.14638824624,1.0366226215,0.484,0.45,3,3,1,296,1
1.05055057853,0.317766497568,0.057619284403,0.169123919597,0.48,0.45,0,0,1,297,1
0.0791450361719,0.0746481543655,1.03918372783,0.151505691328,0.409,0.45,2,2,2,298,1
1.09355127997,0.110362116631,0.11421879551,0.191490958922,0.296,0.45,0,0,2,299,1
0.0184636980519,1.2183491072,0.165250055687,0.134328190593,0.279,0.45,1,1,2,300,1
1.01531067842,0.0959126038727,0.252729471012,0.0915992500817,0.387,0.45,0,0,2,301,1
0.669617451752,1.02822756249,0.34812953181,0.0737519506776,0.453,0.45,1,1,1,302,1
0.124792976027,0.119812410204,1.0614124426,0.102483490455,0.353,0.45,2,2,2,303,1
0.147860314021,0.0797918262654,0.230755764099,1.04495015654,0.398,0.45,3,3,2,304,1
0.386829759955,1.07914480933,0.0978558475155,0.164063285546,0.313,0.45,1,1,2,305,1
0.0797125827672,0.133192085985,0.251019495042,1.02124898325,0.363,0.45,3,3,2,306,1
0.0960678863222,0.499265894231,1.15018366735,0.340301810326,0.448,0.45,2,2,2,307,1
0.198544942787,1.1123334055,0.112573797072,0.186511948161,0.413,0.45,1,1,2,308,1
1.05938657207,0.191182960532,0.100507629768,0.140955929475,0.322,0.45,0,0,2,309,1
0.114857053277,0.205067628481,1.02692235635,0.156810765178,0.29,0.45,2,2,2,310,1
1.10803010814,0.0904400657493,0.15595897142,0.161911537719,0.288,0.45,0,0,2,311,1
0.0534032874479,0.098707258283,0.0800016550069,0.128963973311,0.7,0.45,3,-1,0,313,1
0.092709688506,0.0654978468763,0.216193220667,1.00549902667,0.113,0.45,0,3,-1,313,1
0.3555070261,1.1353030631,0.215716250358,0.330737323868,0.343,0.45,2,1,-1,314,1
0.298408643486,0.246300518929,0.449124042309,1.11395260395,0.572,0.45,3,3,1,315,1
0.503465784636,1.0736719319,0.133493759097,0.190524556496,0.395,0.45,1,1,2,316,1
0.0924982681185,0.128815607545,0.693903913523,1.07715959799,0.465,0.45,3,3,1,317,1
0.0506999020224,0.0510056530677,1.00519928019,0.717996254059,0.432,0.45,2,2,2,318,1
0.0229735501306,1.0831471722,0.710193712105,0.0315885404439,0.33,0.45,1,1,2,319,1
0.196727134276,0.317977090239,1.03637063746,0.310058042026,0.389,0.45,2,2,2,320,1
0.3314136989,1.13036947529,0.076267112382,0.0362061297041,0.301,0.45,0,1,-1,321,1
0.546850989133,1.10139801438,0.0856262930424,0.00787461487911,0.364,0.45,1,1,2,322,1
0.965639121052,1.02466487316,0.0618721703544,0.0519610130825,0.392,0.45,0,1,-1,323,1
0.0601606687285,0.0195107881578,1.00692518291,0.0938686532451,0.327,0.45,3,2,-1,324,1
1.04831920129,0.0453141823656,0.176334894769,0.112260732314,0.401,0.45,0,0,2,325,1
0.263759683386,0.161830284039,1.08534670703,0.213543590637,0.395,0.45,2,2,2,326,1
0.327122901949,1.14757918165,0.153147778458,0.0568824442238,0.387,0.45,1,1,2,327,1
0.229970345895,0.059984735841,0.213946685035,1.17901697829,0.428,0.45,3,3,2,328,1
0.088445934106,0.0806082192549,1.24123070765,0.24830816647,0.449,0.45,2,2,2,329,1
0.284046592963,0.115255220786,0.247935657094,1.04057410128,0.502,0.45,3,3,1,330,1
0.230466755408,1.16326956601,0.0848438702163,0.172388216998,0.458,0.45,1,1,1,331,1
1.03463496457,0.104434111382,0.06641982287,0.104672340246,0.336,0.45,0,0,2,332,1
0.222283880829,0.0893343948847,0.895368094626,1.09512971872,0.376,0.45,3,3,2,333,1
1.02307223832,0.476909055044,0.0342070360505,0.1853504126,0.373,0.45,0,0,2,334,1
0.745527855973,1.24252435386,0.0489118869841,0.0808961601389,0.388,0.45,1,1,2,335,1
0.157840759294,0.186680063525,1.20259111822,0.0915435531473,0.292,0.45,2,2,2,336,1
1.13365545324,0.144787210232,0.103682926427,0.149344850837,0.312,0.45,0,0,2,337,1
1.25171879214,0.355529880828,0.131041233301,0.0718232393579,0.357,0.45,1,0,-1,338,1
0.0829323465009,0.154039871669,1.01354360328,0.276720655405,0.396,0.45,3,2,-1,339,1
0.210970185362,0.0934956842634,1.06054032079,0.203309336762,0.338,0.45,2,2,2,340,1
0.263657460895,0.223063868896,0.788292664018,1.08755818928,0.427,0.45,3,3,2,341,1
0.318869796578,1.10898757959,0.329784194391,0.0770158145519,0.432,0.45,1,1,2,342,1
0.445293051862,0.321254583376,1.12789159637,0.140767322744,0.412,0.45,2,2,2,343,1
1.13883325937,0.112265689956,0.0913056342922,0.0727895149144,0.334,0.45,1,0,-1,344,1
1.11830660787,0.072269883819,0.0600980548744,0.0219223048278,0.362,0.45,0,0,2,345,1
0.247122457869,0.155470658754,0.762163760593,1.00789389413,0.49,0.45,3,3,1,346,1
1.01700066847,0.102181118137,0.0609902563367,0.103846019028,0.391,0.45,0,0,2,347,1
0.164210865988,0.068726899821,1.21623442355,0.159891399909,0.34,0.45,2,2,2,348,1
1.19543702794,0.100091570393,0.0607676580524,0.0393587746278,0.288,0.45,0,0,2,349,1
0.0820159124282,0.242040576653,1.07407917075,0.0803624043421,0.311,0.45,2,2,2,350,1
0.219440538839,0.0572533148626,0.913834204977,1.01274150057,0.476,0.45,3,3,1,351,1
0.350313542578,1.16225625791,0.0806659248914,0.11882982562,0.311,0.45,1,1,2,352,1
0.359161334705,0.111650634498,0.347958626774,1.04575284405,0.496,0.45,3,3,1,353,1
0.0908193642565,0.12371456209,1.09322076952,0.326447630483,0.48,0.45,2,2,1,354,1
0.186408209647,1.07740631447,0.140480067493,0.185389068666,0.335,0.45,1,1,2,355,1
0.314566467814,0.128618895334,1.11859377962,0.106318910963,0.369,0.45,2,2,2,356,1
1.01003315226,0.268663252944,0.0899204462897,0.0794403272622,0.345,0.45,0,0,2,357,1
0.477557426528,0.249366033459,0.32090419668,1.0256221061,0.375,0.45,3,3,2,358,1
1.00648351163,0.190951414514,0.0994897040069,0.126672153337,0.325,0.45,0,0,2,359,1
0.204525817282,1.0546660746,0.532048911086,0.170317850638,0.45,0.45,1,1,1,360,1
1.11947358453,0.13098583365,0.0874834945722,0.0786885540844,0.592,0.45,0,0,1,361,1
0.0843837850809,0.132724799143,0.821581364151,1.03770887914,0.485,0.45,3,3,1,362,1
0.123381647463,0.289368734686,1.08510478675,0.250850995209,0.428,0.45,2,2,2,363,1
0.33989598232,1.07952070325,0.165961404732,0.0917945976219,0.323,0.45,1,1,2,364,1
0.263404505189,0.174717483518,1.20789226351,0.184763565195,0.404,0.45,2,2,2,365,1
0.266219020574,0.173245754758,0.35529847555,0.66137528182,0.7,0.45,3,-1,0,367,1
0.863213213143,1.0945134703,0.269124267374,0.11225173953,0.453,0.45,1,1,1,367,1
1.22844296972,0.118722048568,0.0447680440514,0.072363128066,0.335,0.45,0,0,2,368,1
0.227324428485,1.18474648137,0.173268324183,0.104286020738,0.454,0.45,1,1,1,369,1
0.255238473003,0.197678751646,0.868636684301,1.10714794291,0.476,0.45,3,3,1,370,1
1.07970269503,0.150309184789,0.0416669863146,0.144840101214,0.428,0.45,0,0,2,371,1
0.266536437199,0.0377134898678,1.09489550642,0.0609004517829,0.369,0.45,2,2,2,372,1
1.14780765341,0.0835671429168,0.208033752052,0.0607714434051,0.369,0.45,0,0,2,373,1
0.176907669936,0.105952119899,1.0067077171,0.128412034631,0.305,0.45,1,2,-1,374,1
0.132982879549,0.108358158394,1.20517183858,0.0713699500918,0.349,0.45,2,2,2,375,1
0.145838181441,0.0617130875268,1.01563750948,0.518524072834,0.382,0.45,3,2,-1,376,1
0.273675227634,1.05914325149,0.0594169875018,0.13780271391,0.331,0.45,1,1,2,377,1
0.426239741596,0.285268110286,0.0923480029596,1.01628240726,0.429,0.45,3,3,2,378,1
0.214234917084,0.512154981594,1.15452769833,0.420095764594,0.524,0.45,2,2,1,379,1
1.16370642783,0.0842238324374,0.0385014871096,0.0943348112567,0.465,0.45,0,0,1,380,1
0.11974717127,0.0669543426482,1.03532463723,0.159212446629,0.38,0.45,2,2,2,381,1
0.491411251683,1.05144714732,0.105605720437,0.134084608502,0.464,0.45,1,1,1,382,1
1.07749185386,0.0915072105218,0.0684128984951,0.151164593295,0.503,0.45,0,0,1,383,1
0.257427258238,0.170885138055,0.702251668469,1.00806948401,0.498,0.45,3,3,1,384,1
1.03830636502,0.121691243144,0.183069140531,0.150321200249,0.492,0.45,0,0,1,385,1
0.434386896402,0.116374960072,0.842670500237,1.09230351286,0.505,0.45,3,3,1,386,1
0.20690350288,1.02481631502,0.151764895039,0.154757019424,0.386,0.45,1,1,2,387,1
0.155038572004,0.136083927941,1.17629599262,0.113190983804,0.375,0.45,2,2,2,388,1
0.531277592195,1.06479682934,0.322852933575,0.0428084346597,0.377,0.45,1,1,2,389,1
0.201942528014,0.114738395801,0.321250150621,1.04660669403,0.441,0.45,3,3,2,390,1
0.0997025123332,0.108992106269,1.07767960162,0.711704977719,0.469,0.45,2,2,1,391,1
1.23983106112,0.209812575444,0.273897023521,0.0856424606154,0.422,0.45,0,0,2,392,1
0.319204668932,1.11268874289,0.136838804098,0.0864939437287,0.34,0.45,1,1,2,393,1
1.27768036314,0.204284346453,0.103692442102,0.0260130261641,0.367,0.45,0,0,2,394,1
0.295764876636,1.04845004622,0.109156815231,0.0473842321959,0.286,0.45,2,1,-1,395,1
0.21218462995,0.0628412965982,0.861263919278,1.02205444997,0.462,0.45,3,3,1,396,1
1.0985873236,0.113318777295,0.0297108429868,0.119647874333,0.377,0.45,0,0,2,397,1
0.266252000943,0.18046015313,0.333748737845,1.07570581048,0.42,0.45,3,3,2,398,1
1.04839404492,0.149947027766,0.0899300197518,0.0393010029156,0.353,0.45,2,0,-1,399,1
0.238811794351,1.08131274192,0.10875200011,-0.015213967626,0.425,0.45,1,1,2,400,1
0.221545323268,0.0492244198732,0.720938715263,1.02659022283,0.481,0.45,3,3,1,401,1
0.469553541406,1.03006712607,0.112852060637,0.107111539347,0.463,0.45,1,1,1,402,1
0.205235395954,0.134686021963,1.06523015503,0.0276652825099,0.422,0.45,2,2,2,403,1
0.198979003266,0.0684806555686,0.34483120554,1.00111296251,0.436,0.45,3,3,2,404,1
1.02776004586,0.261512536402,0.044428174142,0.131318799578,0.425,0.45,0,0,2,405,1
0.137787920755,0.168979652537,1.16291954492,0.151486642266,0.392,0.45,2,2,2,406,1
1.05161211547,0.0968086344243,0.0891242083798,-0.00676043685289,0.326,0.45,0,0,2,407,1
0.13328883763,0.097278414037,1.08900420895,0.0852386894302,0.307,0.45,1,2,-1,408,1
1.10336018057,0.769684374669,0.0156580601458,0.0271427213775,0.414,0.45,0,0,2,409,1
0.350069944986,1.08474615292,0.271501117425,0.0441258241498,0.473,0.45,1,1,1,410,1
0.297066380803,0.130297847168,0.687480562009,1.0559564605,0.481,0.45,3,3,1,411,1
0.145786965628,0.613882229781,1.06174197106,0.191854363897,0.481,0.45,2,2,1,412,1
0.092400246752,0.0605265220417,1.00197609063,0.513870292453,0.494,0.45,3,2,-1,413,1
1.04005125704,0.743278387567,0.108184527399,0.110106388993,0.476,0.45,1,0,-1,414,1
0.075138737025,0.246128663544,1.04586182889,0.311523750876,0.492,0.45,2,2,1,415,1
1.23467788141,0.0555679483585,0.137653151119,0.065210906121,0.376,0.45,0,0,2,416,1
0.0208800239891,0.21556297619,1.06974310845,0.129886646295,0.392,0.45,2,2,2,417,1
0.147999255781,1.02168055959,0.119293283095,0.0723573015638,0.342,0.45,1,1,2,418,1
1.0416156757,0.503762953785,0.040335351995,0.0422682390149,0.365,0.45,0,0,2,419,1
0.199122998049,0.0397852368885,0.57128889667,1.01009606126,0.479,0.45,3,3,1,420,1
1.1000740702,0.0391585310434,0.154251697331,0.151080722818,0.417,0.45,0,0,2,421,1
0.116596772758,0.0380753976154,1.00719795221,0.216879530056,0.414,0.45,2,2,2,422,1
0.569252160917,1.0915159494,0.866544082384,-0.0282521003879,0.525,0.45,1,1,1,423,1
0.218559945964,0.155730351901,0.975157507589,1.06555960148,0.629,0.45,3,3,1,424,1
0.201737086688,0.785834390156,1.09318839285,0.108561882386,0.542,0.45,2,2,1,425,1
0.191534873919,0.0350882651168,0.949110815608,1.00887967819,0.627,0.45,3,3,1,426,1
0.30255912524,1.06305032336,0.167841843418,0.126239731902,0.476,0.45,1,1,1,427,1
0.126399964175,0.0869811001974,1.16074659204,0.0714167846434,0.398,0.45,2,2,2,428,1
1.22646764352,0.0606305881313,0.317026397008,0.0670274448764,0.355,0.45,0,0,2,429,1
0.0679981333735,0.0596239319825,1.00688020221,0.0379712460454,0.307,0.45,3,2,-1,430,1
1.08002108751,0.263749219724,0.237224534768,0.149780238236,0.428,0.45,0,0,2,431,1
0.272629758761,1.04758656091,0.17720840561,0.0733025631492,0.338,0.45,1,1,2,432,1
1.17858129762,0.0669052498409,0.401781081481,0.0181120608935,0.373,0.45,0,0,2,433,1
0.229512657365,0.163047204067,1.01887660431,0.22989398342,0.58,0.45,2,2,1,434,2
0.197237150648,0.124721371963,0.442450311029,1.13133694191,0.584,0.45,3,3,1,435,2
1.01155064139,0.569688379321,0.172120891566,0.212449662636,0.492,0.45,0,0,1,436,2
0.315579101173,1.10329571476,0.163250202623,0.201993388235,0.325,0.45,1,1,2,437,2
0.193371816791,0.115406652161,1.01861369138,1.04205535594,0.309,0.45,3,3,2,438,2
0.312504716164,1.22257740289,0.119278061288,0.209679570948,0.275,0.45,1,1,2,439,2
1.11452627318,0.211401043573,0.0751528624593,0.165602125953,0.319,0.45,0,0,2,440,2
0.281237430325,0.189645808072,1.10845639222,0.080326149962,0.269,0.45,2,2,2,441,2
1.00685147325,0.132633733035,0.0926385809102,-0.0164465786315,0.292,0.45,0,0,2,442,2
0.187173970391,0.108793942263,1.0207900336,-0.137522329551,0.287,0.45,3,2,-1,443,2
0.448569038263,1.20344728085,0.219694443355,0.137015996056,0.325,0.45,2,1,-1,444,2
0.738847202598,1.00811519112,0.536772569129,0.0534679522538,0.372,0.45,1,1,2,445,2
0.245210811049,0.182081018453,1.13768150953,0.0687915736426,0.439,0.45,2,2,2,446,2
0.162655742216,0.0993683205633,0.451106803985,1.0421692068,0.536,0.45,3,3,1,447,2
1.01421564154,0.112591977811,0.0560024259507,0.0764059666543,0.428,0.45,0,0,2,448,2
0.140566664604,1.06752641676,0.131604949535,0.0761596452523,0.331,0.45,1,1,2,449,2
0.0107954721209,0.0409524563292,0.881973507786,1.03916966482,0.447,0.45,3,3,2,450,2
0.16394379963,1.23004092906,0.0717156272437,0.151210674021,0.385,0.45,1,1,2,451,2
1.14111413963,0.15371444401,0.0242562172971,0.0285011724581,0.35,0.45,0,0,2,452,2
0.0901722248624,0.0558758032203,1.05810003064,0.113118953798,0.291,0.45,2,2,2,453,2
1.1122492931,0.0696868293288,0.0606158263159,-0.00989600223324,0.29,0.45,0,0,2,454,2
0.186674578528,0.147374167878,1.02499149452,0.302330562287,0.304,0.45,3,2,-1,455,2
0.338504542916,1.09054728251,0.100042117869,0.0629095554737,0.325,0.45,2,1,-1,456,2
0.177910081645,1.05724824185,0.0794752628371,0.0209996408062,0.36,0.45,1,1,2,457,2
0.165854794932,0.0715931867533,1.06007118296,0.130752972889,0.418,0.45,2,2,2,458,2
0.0972100949947,0.0931540737476,0.247213038838,1.00079207916,0.434,0.45,3,3,2,459,2
0.201133500962,1.01143483583,0.203125597026,0.100398465421,0.382,0.45,1,1,2,460,2
1.12798717441,0.0805838851004,0.0805334199727,0.119909610519,0.312,0.45,0,0,2,461,2
0.230138486043,0.141691290534,0.432531871206,1.07960440607,0.486,0.45,3,3,1,462,2
1.061611271,0.0834274904187,0.167792173117,0.147838698081,0.512,0.45,0,0,1,463,2
0.133467151312,1.09186682665,0.15323982515,0.104727147154,0.421,0.45,1,1,2,464,2
0.0952708742268,0.133213421981,1.11854646772,0.100814929958,0.342,0.45,2,2,2,465,2
1.17831510765,0.0694612538708,0.0924028746567,0.110215535716,0.426,0.45,0,0,2,466,2
0.0618440452472,0.0793593142716,1.02014363203,0.11031746287,0.362,0.45,2,2,2,467,2
0.317580322585,1.0475656658,0.204474314878,0.0634152607458,0.391,0.45,1,1,2,468,2
0.153162245067,0.109156259323,0.372222378051,1.04207581282,0.47,0.45,3,3,1,469,2
0.127994610801,0.279617682815,1.11292612808,0.119291027391,0.546,0.45,2,2,1,470,2
0.220001073936,0.310388106563,0.132447069892,0.0713656262939,0.7,0.45,3,-1,0,472,2
1.0519716986,0.949270555029,0.127811251879,0.10252781442,0.363,0.45,0,0,2,472,2
0.275284530426,1.13939996657,0.305473051312,0.0150920277762,0.456,0.45,1,1,1,473,2
1.11595805197,0.202668555507,0.0684789232519,0.137642060873,0.472,0.45,0,0,1,474,2
0.168238650893,0.173688939247,0.521108362243,1.16375438821,0.55,0.45,3,3,1,475,2
0.347132592308,1.02442854286,0.118516924209,0.0804612189304,0.504,0.45,1,1,1,476,2
0.0854614904487,0.0584751120413,1.07033050009,0.0356467250622,0.345,0.45,2,2,2,477,2
1.04610096437,0.109831673323,0.089482430404,0.0522750462166,0.317,0.45,0,0,2,478,2
0.110671780559,0.102179186181,1.0128851864,0.10946697127,0.34,0.45,2,2,2,479,2
1.02429521088,0.0945818328835,0.096276705481,-0.0326954403212,0.324,0.45,1,0,-1,480,2
0.0835159334241,0.0422068550607,0.927085899222,1.05827460079,0.511,0.45,3,3,1,481,2
0.117690510413,0.0516903280962,1.02192526555,0.0998253475089,0.426,0.45,2,2,2,482,2
0.202872007987,0.0633499284564,0.649323764167,1.02850414248,0.539,0.45,3,3,1,483,2
0.361617722405,1.05568615379,0.319603367778,0.0785415190747,0.513,0.45,1,1,1,484,2
1.12652450222,0.100042418827,0.0900778998927,0.0489158832348,0.35,0.45,0,0,2,485,2
0.256684399483,1.16949009872,0.515687972373,0.108578877777,0.399,0.45,1,1,2,486,2
0.415798848766,0.256107039547,0.729039276282,1.07627767381,0.517,0.45,3,3,1,487,2
1.13381039723,0.406647126009,0.119769767761,0.058342077977,0.524,0.45,0,0,1,488,2
0.137834916643,1.04012863992,0.43713669698,0.00380868669716,0.499,0.45,2,1,-1,489,2
1.10050628909,0.0972064589897,0.0768461902122,-0.0282575197324,0.482,0.45,0,0,1,490,2
0.178543895468,0.0725986873452,1.02955983634,0.120952012637,0.519,0.45,3,2,-1,491,2
0.184731504615,0.0602319418332,1.05982787037,0.026223769289,0.443,0.45,2,2,2,492,2
0.311592426117,1.06143635944,0.143839320823,-0.0279902470046,0.388,0.45,1,1,2,493,2
0.211981388626,0.129351494804,1.04132443846,0.0770747210482,0.386,0.45,2,2,2,494,2
1.01392443804,0.397285122101,0.113388033328,0.0713447852828,0.431,0.45,0,0,2,495,2
0.190772533265,0.118456672395,0.573250239976,1.00493408566,0.643,0.45,3,3,1,496,2
0.329457180409,1.05229453816,0.0653298005323,0.0159244595519,0.565,0.45,1,1,1,497,2
0.204014546953,0.104930691223,0.164014701568,1.02179987799,0.522,0.45,3,3,1,498,2
1.14432122591,0.655329649894,0.0786825759169,0.199008378454,0.482,0.45,0,0,1,499,2
0.459528647549,1.14967025873,0.125504135987,0.128161846772,0.486,0.45,1,1,1,500,2
1.11449601865,0.126003759184,0.0495344243137,0.193329897788,0.536,0.45,0,0,1,501,2
0.173959939719,0.309448913078,1.01325951605,0.117358463574,0.55,0.45,2,2,1,502,2
0.29922143186,0.0710668512997,0.45995468917,1.02797790113,0.605,0.45,3,3,1,503,2
0.285618089709,1.06995152485,0.0786533989541,0.10798454496,0.551,0.45,2,1,-1,504,2
0.237043153138,1.10820697307,0.0887155692892,0.0399163261124,0.475,0.45,1,1,1,505,2
0.152560934726,0.0532410373556,1.01725169957,0.0638090262787,0.431,0.45,2,2,2,506,2
0.351576158702,1.07558804593,0.0171928594579,0.0137618907548,0.381,0.45,1,1,2,507,2
1.07134660593,0.0818323752349,0.0361441363999,0.0138561374657,0.344,0.45,0,0,2,508,2
0.103930585975,0.0722080830918,1.06016079958,-0.00240757982842,0.375,0.45,3,2,-1,509,2
1.05182809879,0.0657934916914,0.177987842178,0.0217859168576,0.49,0.45,0,0,1,510,2
1.02948338809,0.188060148388,0.1445141841,-0.0504499716923,0.555,0.45,1,0,-1,511,2
0.0374380356185,0.129037296957,0.330737625688,1.1776459121,0.451,0.45,3,3,1,512,2
0.127107361429,0.0453717111502,1.12990239838,0.0527054528376,0.397,0.45,2,2,2,513,2
0.120612990864,0.0206374735873,0.281840625269,1.00299748845,0.503,0.45,3,3,1,514,2
1.00601040461,0.978043991128,0.130098538761,0.0303197572972,0.612,0.45,1,0,-1,515,2
-0.000899461181519,0.0567433229173,1.08177119706,0.0381598259545,0.499,0.45,2,2,1,516,2
1.0373198815,0.0590366459656,0.0981437153245,0.0436551978128,0.338,0.45,0,0,2,517,2
0.175812485304,0.0942308748919,1.07868201582,0.0540924627033,0.332,0.45,2,2,2,518,2
1.01750068976,0.0846012625461,0.07981423556,-0.0163278329058,0.262,0.45,0,0,2,519,2
0.399891038069,1.03611218857,0.196340167491,0.0393721947979,0.57,0.45,1,1,1,520,2
0.223911282833,0.154514922471,0.346610572857,1.14001278627,0.489,0.45,3,3,1,521,2
0.34057703256,1.03744134482,0.162793119134,0.143324739012,0.362,0.45,1,1,2,522,2
1.14125726074,0.0815978794169,0.200613985273,0.129923369041,0.397,0.45,0,0,2,523,2
0.150538213101,0.151836260538,1.03718537087,0.173883542671,0.401,0.45,3,2,-1,524,2
1.23356214642,0.118172731197,0.113812699436,0.0807688170492,0.412,0.45,0,0,2,525,2
0.109274487208,0.0809675310943,1.08968624356,0.0824204065156,0.376,0.45,2,2,2,526,2
0.147141614309,0.0951076341128,0.274739635501,1.03007868336,0.39,0.45,3,3,2,527,2
0.351358642589,0.0623449696834,1.06402793469,0.0748866209425,0.49,0.45,2,2,1,528,2
0.295368137959,1.0137489418,0.141433977849,0.0895879620588,0.363,0.45,1,1,2,529,2
0.0779151333324,0.043220106861,1.09609107562,0.100840701472,0.387,0.45,2,2,2,530,2
1.23659990325,0.171463688557,0.0887772327675,0.0609959568815,0.364,0.45,0,0,2,531,2
1.07229798077,0.118847496835,0.180078763075,0.398399483321,0.429,0.45,1,0,-1,532,2
0.152702879886,0.200174374388,1.10675059723,0.140980006658,0.347,0.45,3,2,-1,533,2
0.629245178969,1.18195167396,0.117478513465,0.0472376044448,0.402,0.45,1,1,2,534,2
1.21694770192,0.205513839676,0.0711480442621,0.034390165825,0.404,0.45,0,0,2,535,2
0.288589920125,0.218044226405,0.336519347283,1.04665230626,0.52,0.45,3,3,1,536,2
0.284678536738,0.774908272013,1.02781992578,0.131404601847,0.6,0.45,2,2,1,537,2
0.248686965804,0.0542637621853,0.345691473678,1.07334555842,0.674,0.45,3,3,1,538,2
1.08537363294,0.137595614701,0.101138697348,0.265124223752,0.582,0.45,0,0,1,539,2
0.0250855405682,0.0858684975888,1.04613416052,0.269500776732,0.578,0.45,2,2,1,540,2
0.291179650494,1.02730881418,0.102252403506,-0.0140016115761,0.57,0.45,1,1,1,541,2
0.0843506929032,0.0547626336705,1.04791503838,0.0381513196769,0.43,0.45,2,2,2,542,2
0.314014238191,1.06007805361,0.0246126216451,-0.0204881345412,0.369,0.45,1,1,2,543,2
1.17354184576,0.0867157823151,0.207027737925,0.0429646874891,0.358,0.45,0,0,2,544,2
0.124538039837,0.238499230968,0.700344740601,1.00529839432,0.451,0.45,3,3,1,545,2
0.439082491482,1.04170452718,0.0461842045835,0.047100244066,0.401,0.45,1,1,2,546,2
0.10164517189,0.177038695808,1.04202531583,0.333448896872,0.487,0.45,3,2,-1,547,2
1.03363114679,0.215372196074,0.117639554475,0.00319243979078,0.397,0.45,0,0,2,548,2
0.0294236432421,0.205886434691,1.00885890881,0.0646103178098,0.446,0.45,2,2,2,549,2
1.0211915013,0.14570152544,0.0606643004903,-0.00725066140117,0.389,0.45,0,0,2,550,2
0.116512897457,0.133098918969,1.00260324153,0.0817433081808,0.241,0.45,1,2,-1,551,2
0.13244523444,0.124847923768,1.09356421244,0.039017672236,0.391,0.45,2,2,2,552,2
0.189810824657,0.142109653298,0.210748558684,0.531699707141,0.7,0.45,3,-1,0,554,2
0.144424307159,0.127525916184,0.370290510354,1.10538262973,0.12,0.45,2,3,-1,554,2
1.04343837619,0.306308105444,0.0564352139096,-0.0240258905272,0.493,0.45,1,0,-1,555,2
1.11115605315,0.294903625558,0.0266527006394,-0.000703453993729,0.588,0.45,0,0,1,556,2
0.206254902601,0.0321404704477,0.428572333743,1.08375352159,0.539,0.45,3,3,1,557,2
0.543071493714,1.0174639273,0.0988363151802,0.154733657307,0.504,0.45,1,1,1,558,2
0.291033849022,0.120761971999,0.899976952402,1.02107452918,0.516,0.45,3,3,1,559,2
1.09834402864,0.283132681747,0.0707941497237,0.220945714479,0.398,0.45,0,0,2,560,2
0.203848078349,1.00512057245,0.162514667574,0.17479546507,0.348,0.45,1,1,2,561,2
0.0831341840348,0.0447174826515,1.01176829551,0.0420807789071,0.362,0.45,2,2,2,562,2
1.13846825412,0.0272679236602,0.0998942551445,0.0431374042283,0.361,0.45,0,0,2,563,2
-0.0261017325129,0.0214357277625,1.00673807008,0.10729471899,0.367,0.45,2,2,2,564,2
0.251208721691,0.0856844556767,0.478976075248,1.01486221956,0.456,0.45,3,3,1,565,2
0.292826505022,0.0958353637957,1.07484541226,0.049505171233,0.464,0.45,2,2,1,566,2
0.0738295329308,0.0199631024695,0.484008589378,1.00193227512,0.508,0.45,3,3,1,567,2
0.522193636996,1.05660588454,0.296523485748,0.167875491559,0.52,0.45,1,1,1,568,2
1.11958427845,0.166678611329,0.186596436427,0.109851417633,0.38,0.45,0,0,2,569,2
0.158233800712,0.191332884983,0.39532554558,1.02873259495,0.405,0.45,3,3,2,570,2
1.05652963046,0.137670851318,0.13873637762,0.0849022400015,0.688,0.45,0,0,1,571,2
0.0843316657841,1.00846510145,0.142951085163,0.065062244321,0.433,0.45,1,1,2,572,2
0.166716616293,0.133106862505,1.02166359697,0.107416850431,0.337,0.45,3,2,-1,573,2
0.264679994713,0.134334250405,1.13180354265,0.232111735681,0.449,0.45,2,2,2,574,2
0.321461074269,1.0207888215,0.080982987781,0.0524255793603,0.379,0.45,1,1,2,575,2
0.197079834179,0.100641446201,1.10456214909,0.311859437935,0.444,0.45,2,2,2,576,2
1.04499991006,0.219275912172,0.068764711621,0.036333481019,0.435,0.45,0,0,2,577,2
0.14086774623,0.0989807345083,1.0704017709,0.0516458548735,0.35,0.45,2,2,2,578,2
1.1572646022,0.0429365699517,0.0836907593521,0.0253364232347,0.317,0.45,0,0,2,579,2
0.0439030242475,0.0405790809387,1.0147953441,0.057906976794,0.31,0.45,1,2,-1,580,2
0.144823975044,0.11506859599,0.593301473992,1.01720944358,0.457,0.45,3,3,1,581,2
1.0737468646,0.110522424647,0.0422190743395,0.0646466211612,0.518,0.45,0,0,1,582,2
0.301034647427,0.172749405719,0.35073151243,1.01739692838,0.568,0.45,3,3,1,583,2
0.215946835313,1.06591776575,0.0760302472551,0.0731441871667,0.412,0.45,1,1,2,584,2
0.328908503021,0.0743739643111,1.0928559525,0.0440568547594,0.464,0.45,2,2,1,585,2
0.216125247754,0.0762640201145,0.508907795629,1.06610908992,0.502,0.45,3,3,1,586,2
0.298945370509,0.08450356519,1.03402995879,0.482544853035,0.671,0.45,2,2,1,587,2
0.76362878304,1.12885075385,0.0592579772611,0.0800438908877,0.563,0.45,1,1,1,588,2
1.07389073001,0.0489295345165,0.0247353693837,0.061247546668,0.371,0.45,0,0,2,589,2
0.286974845762,0.295867367211,1.1020968141,0.0885775942516,0.38,0.45,2,2,2,590,2
1.11454269376,0.101110320004,0.0662250737042,0.0778288028554,0.337,0.45,1,0,-1,591,2
1.01945166971,0.789305865865,0.0269014430736,0.0162299764911,0.383,0.45,0,0,2,592,2
0.265286735049,0.0304225175881,0.836913602095,1.01852703111,0.52,0.45,3,3,1,593,2
1.11505800677,0.324002497063,0.26916106285,0.201812763223,0.509,0.45,0,0,1,594,2
0.274948171563,1.0461317378,0.251466514052,0.100112013916,0.478,0.45,1,1,1,595,2
0.145176876893,0.133995423036,0.684003664385,1.12063066941,0.415,0.45,3,3,2,596,2
0.067728562211,0.243715689262,1.04851304791,0.270953170722,0.614,0.45,2,2,1,597,2
0.126937030548,0.0624042447529,0.294253915168,1.01707336497,0.61,0.45,3,3,1,598,2
1.00534710933,0.496899376486,0.121564925305,0.208149746983,0.576,0.45,1,0,-1,599,2
0.00591578370071,0.0493923525376,1.02814452933,0.0931720249634,0.487,0.45,2,2,1,600,2
1.16141977683,0.0419802201123,0.0666499546304,0.0615303677046,0.392,0.45,0,0,2,601,2
0.0440446237081,0.0492958998463,1.0742457593,0.0503059677677,0.331,0.45,2,2,2,602,2
0.148164509218,0.0672292747863,0.309469084903,1.1258980835,0.478,0.45,3,3,1,603,2
1.16007436479,0.233943556631,0.119701426745,0.226329122069,0.501,0.45,0,0,1,604,2
0.277101515765,1.06261265205,0.11899095828,0.148304994837,0.414,0.45,1,1,2,605,2
0.130978718827,0.124772663534,1.02089071098,0.0501550895891,0.538,0.45,3,2,-1,606,2
0.42778775382,1.08300882002,0.0664105250529,0.0379768309122,0.561,0.45,1,1,1,607,2
1.13575306881,0.104561953155,0.0531517268088,0.0381855590143,0.387,0.45,0,0,2,608,2
0.144215109758,0.123290168753,1.11508037411,-0.00535998670588,0.354,0.45,2,2,2,609,2
1.08845839895,0.112510680266,0.137786716438,-0.0201192163326,0.325,0.45,1,0,-1,610,2
0.0149348180793,0.109170175457,1.08038516193,0.0151020979516,0.429,0.45,2,2,2,611,2
1.02761804948,0.344312780599,0.0908947650729,0.0339472434409,0.53,0.45,0,0,1,612,2
0.163224571653,0.150540107782,0.825904406123,1.02395930973,0.551,0.45,3,3,1,613,2
1.09935703182,0.143158354664,0.115422314881,0.0663964913356,0.38,0.45,2,0,-1,614,2
0.240895351865,0.1476267387,1.04888333533,0.021298828023,0.27,0.45,3,2,-1,615,2
0.338528563835,0.16677134881,0.140455854824,0.287616423084,0.7,0.45,0,-1,0,617,2
1.13479418056,0.175755435739,0.144298149587,0.254770460906,0.0790000000003,0.45,1,0,-1,617,2
1.15611031043,0.269031534856,0.208844676732,0.217844586219,0.577,0.45,0,0,1,618,2
0.161328727217,0.159484570185,0.211026459064,1.057649342,0.496,0.45,3,3,1,619,2
0.182309561434,1.03146881985,0.129771959967,0.307306196044,0.502,0.45,1,1,1,620,2
0.0690715155065,0.109656154603,0.26489860574,1.10012547675,0.475,0.45,3,3,1,621,2
0.0924189322287,0.0858651158185,1.07673282422,0.355224750594,0.505,0.45,2,2,1,622,2
1.09844480985,0.108086048853,0.0774073452116,0.0882906731508,0.377,0.45,0,0,2,623,2
0.0514834310416,0.111460265121,1.04222819167,0.173895246338,0.384,0.45,2,2,2,624,2
0.271121636072,1.03329124589,0.161627416531,0.0534177771084,0.398,0.45,1,1,2,625,2
0.0442533636863,0.0704210067579,1.13894842971,0.254378254006,0.418,0.45,2,2,2,626,2
0.183854296025,0.0785854644629,0.321932404182,1.11904640573,0.472,0.45,3,3,1,627,2
1.08035043706,0.147177431666,0.0735454070845,0.054891209681,0.486,0.45,0,0,1,628,2
0.251845617974,1.0306323238,0.16867103265,0.147264458985,0.523,0.45,1,1,1,629,2
0.141632081863,0.0969835686285,0.329556768059,0.899513294534,0.7,0.45,3,-1,0,631,2
0.309476357797,1.07489138694,0.0540395205443,0.0314515648311,0.601,0.45,1,1,1,631,2
1.02446333678,0.193761523691,0.0291802230017,0.0578764762918,0.522,0.45,0,0,1,632,2
0.0805103325622,0.133841492159,0.236151379561,1.0461629141,0.456,0.45,3,3,1,633,2
0.126753375246,0.15426421329,1.0592547478,0.201894853189,0.352,0.45,2,2,2,634,2
1.04818841762,0.635342350893,0.0802074930713,0.111179962908,0.493,0.45,0,0,1,635,2
0.0385104400237,0.0273310532354,1.04019735797,0.151419537477,0.428,0.45,2,2,2,636,2
0.428799916033,1.06179463096,0.0864269100697,0.046922942737,0.417,0.45,1,1,2,637,2
0.0868715012947,1.02472531244,0.351561539718,0.103936877187,0.384,0.45,2,1,-1,638,2
1.21790327805,0.154011089129,0.0628102326649,0.0413051645827,0.397,0.45,0,0,2,639,2
0.30428631567,1.08013151676,0.165092876792,0.111717973503,0.594,0.45,1,1,1,640,2
0.128314299673,0.0977575733962,0.252372300293,1.043706343,0.527,0.45,3,3,1,641,2
0.233596984751,1.06223110235,0.159157387119,0.159539795176,0.589,0.45,1,1,1,642,2
1.04448095574,0.160734751191,0.0223322201261,0.0739624844264,0.464,0.45,0,0,1,643,2
0.0257976466054,0.18103286846,1.05961291494,0.273846707125,0.45,0.45,3,2,-1,644,2
1.03054389514,0.179374282855,0.0756573232916,0.0179469448031,0.336,0.45,0,0,2,645,2
0.048357539121,0.0543482216728,1.11348902985,0.400837478026,0.421,0.45,2,2,2,646,2
0.145854955188,0.0480792051432,0.336670745662,1.03796846295,0.529,0.45,3,3,1,647,2
0.0661222955352,0.0420759742052,1.08043025641,-0.00303616615113,0.476,0.45,2,2,1,648,2
1.10924456541,0.092377821039,0.0817399072293,0.0399667708933,0.447,0.45,1,0,-1,649,2
-0.00174820421664,0.0515869193225,1.00554003015,0.107598091708,0.55,0.45,2,2,1,650,2
0.974046228095,1.21371203852,1.89007810424,1.02871511938,0.0100000000004,0.45,1,2,-1,651,3
1.06150609828,0.248119935322,0.188069183634,0.0666857132895,0.379,0.45,0,0,2,652,3
0.142969880934,0.146948513718,0.354949514074,1.05565751934,0.472,0.45,3,3,1,653,3
0.218056104573,0.0929120963362,1.11313411084,0.166890940411,0.453,0.45,2,2,1,654,3
0.503256451764,1.10812476792,0.171882663366,0.048160137109,0.451,0.45,0,1,-1,655,3
0.329979862627,0.0797655226299,1.06920057968,0.0610892878206,0.525,0.45,2,2,1,656,3
0.137551830749,0.121193188418,0.402078774891,1.08589083918,0.428,0.45,3,3,2,657,3
1.17921282372,0.927275217343,0.105618135855,0.165841913543,0.444,0.45,0,0,2,658,3
0.111057797983,1.09939439965,0.0301406734838,0.0716435507408,0.402,0.45,1,1,2,659,3
0.237886273619,0.169358067118,0.418715026978,1.0192762532,0.429,0.45,3,3,2,660,3
0.162091079823,1.02905934828,0.0684736975869,0.135952364278,0.354,0.45,1,1,2,661,3
0.291096888327,0.0414223584629,1.08707044447,0.107158211742,0.375,0.45,2,2,2,662,3
1.14784009965,0.123909361505,0.0912512585978,0.0986843969969,0.441,0.45,1,0,-1,663,3
0.099896965821,0.0679524836814,0.602846031892,1.08601239175,0.525,0.45,3,3,1,664,3
0.0624226369663,0.0850456023725,1.10937457303,0.26357839422,0.558,0.45,2,2,1,665,3
1.14657416531,0.0975181662328,0.0447050422264,0.121943032971,0.465,0.45,0,0,1,666,3
0.102487417363,0.0741781479646,0.334385485796,1.0764427736,0.524,0.45,3,3,1,667,3
1.09165538703,0.111867165362,0.0449712836707,0.18113236437,0.554,0.45,0,0,1,668,3
0.133616906184,0.0535934787187,1.09723723245,0.0482122446841,0.493,0.45,2,2,1,669,3
0.190240466168,0.0946872765594,0.0754697042106,1.06706501469,0.563,0.45,3,3,1,670,3
0.0977191537179,1.08005899297,0.0666648754765,0.138319114489,0.475,0.45,1,1,1,671,3
1.00411874342,0.128548539433,0.0337207160736,-0.0294527521074,0.498,0.45,0,0,1,672,3
0.242115980486,1.0850691023,0.0315180566957,0.0145031361506,0.508,0.45,1,1,1,673,3
0.235296529683,0.0418694850847,1.12627154808,0.0216981999105,0.473,0.45,2,2,1,674,3
0.801212010953,1.08601169765,0.0922071313451,0.100892312222,0.476,0.45,1,1,1,675,3
1.02567928634,0.0742327668197,0.0377741975075,-0.0619811150809,0.434,0.45,0,0,2,676,3
0.558279335264,0.329080355034,0.828966394876,1.05364476244,0.566,0.45,3,3,1,677,3
0.090317809577,0.199108874097,1.06434690653,0.142073419537,0.61,0.45,2,2,1,678,3
1.0570952492,0.088612405798,0.0788111362505,0.0653614421468,0.528,0.45,0,0,1,679,3
0.107840201884,0.0589658048886,1.06660953774,0.197541791615,0.45,0.45,2,2,1,680,3
0.102637702498,0.0417449634853,0.733549421856,1.0004791041,0.5,0.45,3,3,1,681,3
1.0631803116,0.148049940705,0.1084064389,0.17020865139,0.536,0.45,0,0,1,682,3
0.136477337384,1.01122311123,0.129658690614,0.2007221028,0.413,0.45,1,1,2,683,3
0.0381825682704,0.0390661968702,0.46726996281,1.04988727056,0.444,0.45,3,3,2,684,3
0.220557171703,1.1109901175,0.133256367409,0.19327198234,0.341,0.45,1,1,2,685,3
0.188577401876,0.119031454567,1.02190257472,0.070535052052,0.459,0.45,2,2,1,686,3
0.302869312799,1.04391091299,0.0790395198627,0.094582333486,0.513,0.45,1,1,1,687,3
0.0902360985096,0.115919480281,1.06056907849,0.0696783920687,0.558,0.45,2,2,1,688,3
0.236608758242,0.0926772850996,0.149086930152,1.06152321532,0.445,0.45,3,3,2,689,3
1.01440916198,0.231254555992,0.156061137803,0.238059441073,0.45,0.45,0,0,1,690,3
0.181997323651,0.0828183898407,0.183227095234,1.0026757987,0.391,0.45,3,3,2,691,3
0.23529494022,1.06469984819,0.11974664909,0.172466403293,0.469,0.45,2,1,-1,692,3
0.213091462615,1.10765109541,0.132376668754,0.152658121527,0.504,0.45,0,1,-1,693,3
0.138969132861,0.396811929256,0.26668985966,0.0716509973652,0.7,0.45,2,-1,0,695,3
0.127379992942,0.270620088252,1.0762945657,0.122723243913,0.164,0.45,1,2,-1,695,3
0.0982395574138,0.0915461102677,0.419204866228,1.00165353015,0.51,0.45,3,3,1,696,3
0.443973667243,1.01862266538,0.0627214248602,0.117557165243,0.445,0.45,1,1,2,697,3
1.19647466319,0.116193372802,0.0744449286058,0.0285679547185,0.456,0.45,0,0,1,698,3
0.308709463686,1.10349251918,0.088243492302,0.0372729794506,0.543,0.45,1,1,1,699,3
-0.00942625866819,0.120369510484,1.08016687979,0.0259496870773,0.414,0.45,2,2,2,700,3
0.0350023116124,0.0586797855438,0.519945134024,1.14327519949,0.438,0.45,3,3,2,701,3
1.14335491915,0.141274456775,0.0632954396786,0.0577853105162,0.366,0.45,0,0,2,702,3
0.27410112944,0.400868859852,1.0917126078,0.166784123536,0.4,0.45,2,2,2,703,3
1.05869275367,0.172498931949,0.0735764915066,0.0306855009763,0.378,0.45,0,0,2,704,3
0.0340912597522,0.111295367827,0.557878601916,1.12548285863,0.44,0.45,3,3,2,705,3
0.301029552314,0.181564025539,1.09660473025,0.133780677567,0.509,0.45,2,2,1,706,3
0.0821105740055,1.01158278937,0.0729270777023,0.0782940294647,0.428,0.45,1,1,2,707,3
0.0890294914739,0.0657606760986,0.222569965653,1.13732787743,0.423,0.45,3,3,2,708,3
0.358879488233,1.01944166951,0.0762548320278,0.00590391370517,0.466,0.45,1,1,1,709,3
1.19824312244,0.130804761167,0.0686063144605,0.0201075266749,0.483,0.45,0,0,1,710,3
1.17875510837,0.369456375867,0.116798097489,0.0649757382186,0.559,0.45,1,0,-1,711,3
0.025558078087,1.04674703703,0.18188446307,0.0731346121524,0.51,0.45,2,1,-1,712,3
0.144704608597,0.243610579945,1.06192882343,0.0962656680843,0.53,0.45,3,2,-1,713,3
1.11966227519,0.32442112909,0.117771979402,0.0238192040404,0.554,0.45,0,0,1,714,3
0.195722790893,0.111996303005,1.1542426364,0.0511778437229,0.538,0.45,2,2,1,715,3
1.0220771695,0.13664104589,0.0859448423003,0.0853444894739,0.484,0.45,0,0,1,716,3
0.0744385391437,0.0448785699955,0.461696423869,1.12976077161,0.462,0.45,3,3,1,717,3
0.543034454155,1.04320187983,0.132744989726,0.0888421013054,0.407,0.45,1,1,2,718,3
1.06721956501,0.157852274792,0.0892524139758,0.0249026576726,0.431,0.45,0,0,2,719,3
0.222344770505,1.16398086985,0.198766047086,0.128578248781,0.46,0.45,1,1,1,720,3
0.0360205270355,0.0443479885829,0.196465266266,1.24156245015,0.44,0.45,3,3,2,721,3
0.137849093412,0.141659242219,1.12201971464,0.192922407794,0.424,0.45,2,2,2,722,3
0.371315245936,1.07701398565,0.218950231922,0.0111978992954,0.452,0.45,1,1,1,723,3
0.0872877849085,0.814764787806,1.20915186457,0.136233485829,0.523,0.45,2,2,1,724,3
1.06887732279,0.314623621144,0.0561996345456,0.0260243408943,0.447,0.45,0,0,2,725,3
0.034801232418,0.119067940884,0.758774939725,1.22031668774,0.449,0.45,3,3,2,726,3
1.05984807201,0.137719901824,0.0948431075134,0.0222361896267,0.326,0.45,0,0,2,727,3
0.101120673994,0.163668943192,1.05423174535,0.103486297282,0.35,0.45,2,2,2,728,3
0.294492205333,0.184906889427,0.226153341047,1.12369102142,0.446,0.45,3,3,2,729,3
0.270216481999,0.215806488196,1.07204481377,0.156489649774,0.523,0.45,2,2,1,730,3
0.618754043718,1.03388171524,0.189181935056,0.0652393160737,0.474,0.45,1,1,1,731,3
1.05259679176,0.186979051011,0.0741502100521,0.0518716459299,0.381,0.45,0,0,2,732,3
0.53724828069,1.06412920903,0.405228094412,0.0842682801649,0.446,0.45,1,1,2,733,3
0.13949067916,0.0618350011844,0.372443028027,1.03205172316,0.444,0.45,3,3,2,734,3
0.349036129735,1.1492860262,0.0848099722516,0.0158874452345,0.361,0.45,1,1,2,735,3
0.122320069843,0.0976664915519,1.1031012797,0.699320141584,0.391,0.45,2,2,2,736,3
1.13755661369,0.186022353414,0.108573667276,-0.00267870030828,0.296,0.45,0,0,2,737,3
0.0884637596834,0.104061661159,0.447231742177,1.00947358671,0.339,0.45,3,3,2,738,3
1.08938108546,0.638340838923,0.147989119654,0.00737438210658,0.443,0.45,0,0,2,739,3
0.180771905782,0.0610272065099,1.10960115425,0.252671873354,0.377,0.45,2,2,2,740,3
0.108160357153,0.114501002456,0.329375477571,1.088527505,0.406,0.45,3,3,2,741,3
0.315806508968,1.00629244162,0.132722157141,0.0238201472778,0.391,0.45,1,1,2,742,3
1.01125783284,0.122433570612,0.0841341220321,0.0175978286306,0.336,0.45,0,0,2,743,3
1.22292569085,0.192432892939,0.202883179693,0.0119156603671,0.43,0.45,1,0,-1,744,3
0.343397286675,0.252089975501,1.0323180728,0.837179526478,0.431,0.45,3,2,-1,745,3
0.0845203107606,0.76525639456,1.00520505348,0.0881215877594,0.454,0.45,2,2,1,746,3
1.04623853148,0.100692888066,0.076035143723,0.0187810990024,0.351,0.45,1,0,-1,747,3
0.041773791995,0.0526881683221,1.01113308078,0.16372558676,0.43,0.45,2,2,2,748,3
0.0739496666128,0.0597300308979,0.206640476383,1.02696735383,0.418,0.45,3,3,2,749,3
1.12969172658,0.132082268531,0.127265011186,0.0180546424563,0.41,0.45,0,0,2,750,3
0.178213250028,0.0927102574447,0.234770583151,1.15734315717,0.425,0.45,3,3,2,751,3
0.199169072623,0.0815933492113,1.00772936246,0.168403163915,0.507,0.45,2,2,1,752,3
1.02745064978,0.0677679755462,0.0971308710764,0.0456224639125,0.433,0.45,0,0,2,753,3
0.0920260083189,0.0360922918044,1.08359983015,0.0955578644946,0.43,0.45,2,2,2,754,3
0.27141083174,1.0979417978,0.171712154777,0.0270610584506,0.41,0.45,1,1,2,755,3
0.0575740048201,0.0557415407702,0.127746149568,1.07119812457,0.374,0.45,3,3,2,756,3
0.215215919799,1.01169723237,0.117270902312,0.0927099435623,0.354,0.45,1,1,2,757,3
1.07604344612,0.111247925654,0.079585292137,0.140167474252,0.386,0.45,0,0,2,758,3
0.578624269191,1.0369242254,0.273896055992,-0.0189390342059,0.417,0.45,1,1,2,759,3
0.189196018212,1.0979298911,0.372668892148,0.0165938313203,0.385,0.45,2,1,-1,760,3
0.0962731167126,0.0796057107257,1.01812176013,-0.028286941554,0.383,0.45,3,2,-1,761,3
1.03177965494,0.196188879965,0.134883766123,0.0967747575414,0.397,0.45,0,0,2,762,3
0.167710866864,0.0516106487153,1.01550644399,0.965897019423,0.426,0.45,3,2,-1,763,3
1.0730774023,0.134296012234,0.0660903363795,-0.0359106938415,0.306,0.45,2,0,-1,764,3
0.380470629002,0.337001218387,0.280202765614,0.579381205512,0.7,0.45,0,-1,0,766,3
0.40467306371,0.307307649618,0.996438330531,0.406180276758,0.7,0.45,2,-1,0,767,3
0.404495193007,0.305076661458,1.09180566529,0.416046586952,0.0120000000004,0.45,1,2,-1,767,3
0.158954420201,0.131705200544,0.808895400214,1.04211748645,0.49,0.45,3,3,1,768,3
0.496398761292,1.09662489785,0.174703064524,0.0510609274259,0.41,0.45,1,1,2,769,3
1.06060216735,0.207851336631,0.128799510292,0.11842952765,0.394,0.45,0,0,2,770,3
0.203049125184,1.06000094401,0.298354719998,0.0158896829962,0.521,0.45,1,1,1,771,3
1.03460892114,0.162441840621,0.106739717001,0.0683205985458,0.544,0.45,0,0,1,772,3
0.165502281996,0.151563609829,1.00386258452,0.0420762085702,0.616,0.45,2,2,1,773,3
0.121895673631,0.134669087296,1.02213005385,0.1134880277,0.698,0.45,3,2,-1,774,3
1.13737206239,0.122615806367,0.0974307814171,0.0145748418771,0.56,0.45,0,0,1,775,3
0.136469683479,0.0748865841697,0.177660875586,1.10715124874,0.455,0.45,3,3,1,776,3
0.240255735716,0.162123025076,1.08758387108,0.0748058033317,0.502,0.45,2,2,1,777,3
0.384705114671,1.07924343422,0.196180698522,0.0420574080363,0.454,0.45,1,1,1,778,3
0.12551213279,0.0434804736597,0.752721668915,1.08107217756,0.517,0.45,3,3,1,779,3
0.571237345943,1.0902407704,0.119944375225,0.0869682569505,0.508,0.45,1,1,1,780,3
0.104692114481,0.119318865139,1.08471289357,0.0879237353409,0.451,0.45,2,2,1,781,3
1.07105310155,0.133593931088,0.153713412217,0.0334036730183,0.415,0.45,0,0,2,782,3
0.575436048961,1.01198004565,0.16107315085,0.0388044295777,0.59,0.45,1,1,1,783,3
0.104710219476,0.062298813477,1.01076917718,0.00991024921167,0.492,0.45,2,2,1,784,3
0.42120076702,0.209267890784,0.698552850763,1.08809979833,0.565,0.45,3,3,1,785,3
0.53513190937,1.05474875714,0.105551176364,0.0160727654808,0.499,0.45,0,1,-1,786,3
0.368238172693,0.181097221061,0.33697027022,1.09739144742,0.518,0.45,3,3,1,787,3
0.20725903819,0.294703063648,1.08283736587,0.164823929449,0.586,0.45,2,2,1,788,3
1.04827791303,0.912790999204,0.160169199101,0.0746608285773,0.515,0.45,0,0,1,789,3
0.235788217815,0.071415478087,1.04378547394,0.0942786554708,0.512,0.45,2,2,1,790,3
0.328043034052,1.09210992661,0.150445863468,0.0409781305861,0.554,0.45,1,1,1,791,3
1.01127541005,0.156246512096,0.126201712345,0.0534348537808,0.46,0.45,0,0,1,792,3
0.273896543403,1.06575711678,0.205682419687,-0.0102367017074,0.48,0.45,1,1,1,793,3
0.0653310309236,0.0601030905369,0.569415886465,1.06813142398,0.61,0.45,3,3,1,794,3
0.319547805051,1.07411781875,0.200435923752,0.0672604830457,0.57,0.45,1,1,1,795,3
1.19226670053,0.133087333251,0.128855973366,0.0260731393062,0.494,0.45,0,0,1,796,3
0.566268609125,0.204830584885,0.945811237079,1.03871009832,0.581,0.45,3,3,1,797,3
0.236201604961,0.437436342776,1.10541537977,0.0253280984298,0.605,0.45,2,2,1,798,3
1.17891460298,0.0812229913627,0.130643854699,-0.0329882606946,0.568,0.45,0,0,1,799,3
0.0719119381692,0.0456746485746,1.06617168045,0.0575542149282,0.478,0.45,2,2,1,800,3
0.162563346166,0.0628143772128,0.249503098175,1.18309510823,0.512,0.45,3,3,1,801,3
0.30691957197,1.10343681083,0.138273826108,-0.0275006633404,0.521,0.45,1,1,1,802,3
0.126390235961,0.071621465231,0.37214940895,1.05581857538,0.534,0.45,3,3,1,803,3
1.09608513412,0.133550009287,0.101796867329,0.01032831307,0.461,0.45,0,0,1,804,3
0.373419843588,1.13866652676,0.4636499187,0.0313366852995,0.505,0.45,1,1,1,805,3
0.531706337319,0.284087370639,1.13000709832,0.186030154727,0.471,0.45,2,2,1,806,3
1.05178207674,0.171090281387,0.0646081497992,0.0335963664063,0.475,0.45,1,0,-1,807,3
0.179905326812,0.119139811966,0.612511270343,1.05038402826,0.47,0.45,3,3,1,808,3
1.0037522263,0.147264864403,0.105731144143,-0.00340819770904,0.413,0.45,0,0,2,809,3
0.224480828313,0.0515259295061,1.0634985202,0.0668692080593,0.468,0.45,2,2,1,810,3
1.05853896161,0.157509171169,0.127853464886,0.0444082367667,0.595,0.45,0,0,1,811,3
0.14091764676,0.0660201971037,0.367683316385,1.03888783839,0.62,0.45,3,3,1,812,3
0.183221523854,0.248673476379,1.11485974587,0.118668483791,0.545,0.45,2,2,1,813,3
0.249334124179,1.01319885732,0.17515086022,0.104470348954,0.543,0.45,1,1,1,814,3
1.00017323243,0.120139421149,0.120593362396,-0.0119748130116,0.47,0.45,0,0,1,815,3
0.134211124252,1.19508679137,0.408735987104,0.0550305331265,0.616,0.45,1,1,1,816,3
0.0888125288154,0.090235161163,1.07671397854,0.0252072743801,0.5,0.45,2,2,1,817,3
0.122431411662,0.0444526907542,0.187723285248,1.06079518666,0.455,0.45,3,3,1,818,3
0.234236893979,1.07085878095,0.111283927722,0.0440765552498,0.447,0.45,1,1,2,819,3
0.0446412020535,0.0390750959356,1.06556909704,0.0214846531053,0.426,0.45,3,2,-1,820,3
1.07766016844,0.136555278096,0.123598023012,-0.0135085972718,0.511,0.45,0,0,1,821,3
0.0907445500806,0.673423092504,1.01087371731,0.114275053381,0.566,0.45,2,2,1,822,3
0.346486071585,1.09660909119,0.136771853595,0.0483340953289,0.562,0.45,0,1,-1,823,3
1.02004424212,0.288623979145,0.625121691413,0.718766171451,0.622,0.45,3,0,-1,824,3
0.536376890614,0.204719436056,1.14095079094,-0.00577917547888,0.652,0.45,2,2,1,825,3
0.144010690879,0.067901926934,0.257417780721,1.10464100186,0.55,0.45,3,3,1,826,3
0.292657151618,1.11436366601,0.0488164178496,0.103400113637,0.498,0.45,1,1,1,827,3
1.15695877745,0.13390444785,0.114637293902,0.0484756146436,0.526,0.45,0,0,1,828,3
0.124716665073,1.10237213417,0.494371794362,0.132485920842,0.61,0.45,1,1,1,829,3
0.0394903286409,0.48521931229,1.00148321599,0.119235607674,0.543,0.45,2,2,1,830,3
1.16270592231,0.0890249747322,0.0940673792191,-0.00910946246982,0.466,0.45,1,0,-1,831,3
0.00230297783082,0.0547057183204,1.13376503002,0.034996480273,0.434,0.45,3,2,-1,832,3
0.213522631808,0.158623283336,1.03137750023,-0.0177360153476,0.576,0.45,2,2,1,833,3
1.07272135076,0.0847476464158,0.0322777052098,-0.00266435201223,0.566,0.45,0,0,1,834,3
-0.00500466290286,0.0428100257307,1.07836375093,0.105821557404,0.489,0.45,2,2,1,835,3
0.00633441768123,0.0325835441717,0.103082798864,1.04621653495,0.455,0.45,3,3,1,836,3
1.12687866222,0.0313687309843,0.130428677034,0.0669060923185,0.534,0.45,0,0,1,837,3
0.0529229102374,1.12380434114,0.457626036353,0.189138252309,0.545,0.45,1,1,1,838,3
0.258318068497,0.334323742347,0.286712073235,0.124445012075,0.7,0.45,2,-1,0,840,3
1.00224216651,0.830621342915,0.2792492891,0.091491017139,0.65,0.45,1,0,-1,840,3
1.05483500203,0.139995307765,0.391712426509,0.00390797225018,0.611,0.45,0,0,1,841,3
0.179606183181,0.0391161310913,1.00251840444,0.219746020806,0.471,0.45,3,2,-1,842,3
1.04172399081,0.125761859112,0.111997720178,-0.079454850846,0.486,0.45,1,0,-1,843,3
0.321907677716,0.227020671391,0.182361835499,0.0111131705232,0.7,0.45,0,-1,0,845,3
1.15490657859,0.447163591754,0.20183675303,0.0400562567796,0.128,0.45,3,0,-1,845,3
0.283428580732,0.0789814029245,1.22827625913,0.0940973483131,0.52,0.45,2,2,1,846,3
0.152939151312,0.0526321537954,1.05300607457,0.0463600240561,0.435,0.45,0,2,-1,847,3
0.189702014261,0.0293529331172,1.0997549378,0.0589140455137,0.431,0.45,2,2,2,848,3
0.0524547611703,0.0310943855919,0.694320734897,1.0445732299,0.534,0.45,3,3,1,849,3
1.13846842473,0.0312265612614,0.230581491245,-0.0429705661599,0.444,0.45,0,0,2,850,3
0.345886808082,1.11829124474,0.201447761058,0.11392909144,0.418,0.45,1,1,2,851,3
0.16697402068,0.0646534854425,0.399752733449,1.04559061096,0.399,0.45,3,3,2,852,3
1.18360739583,0.118038576553,0.208842835003,0.0812081093819,0.314,0.45,1,0,-1,853,3
0.0432389278319,0.125708840089,1.11763336074,0.0906301561667,0.486,0.45,2,2,1,854,3
0.312831501478,1.08301627195,0.136698003394,0.0809632803128,0.491,0.45,1,1,1,855,3
0.106381586064,0.0262082140499,1.09725926352,0.143827261567,0.373,0.45,2,2,2,856,3
0.102838292927,0.0622442139371,0.502752232748,1.00767677236,0.401,0.45,3,3,2,857,3
1.03717631828,0.142835567733,0.151764767046,0.0981190780569,0.354,0.45,0,0,2,858,3
0.186141517061,0.160790306833,0.299131703045,1.01153672069,0.444,0.45,3,3,2,859,3
0.177884391618,0.363035224276,1.10459528699,0.138858102194,0.438,0.45,2,2,2,860,3
1.16185460681,0.0298491465605,0.119333981043,0.0675145224764,0.426,0.45,0,0,2,861,3
0.149786504147,0.0141376545352,1.06740796804,0.176167851275,0.401,0.45,2,2,2,862,3
1.15469032076,0.0136430852165,0.164582859475,0.066183119873,0.338,0.45,1,0,-1,863,3
0.0913899405258,0.103725268346,1.08877873945,0.931789914547,0.462,0.45,3,2,-1,864,3
1.07537404773,0.19099293204,0.131495564132,-0.00355712898476,0.32,0.45,1,0,-1,865,3
0.0286054092262,1.1594462178,0.155665002083,0.0655979528641,0.413,0.45,0,1,-1,866,3
0.319835756724,1.1903453068,1.02844203793,0.0912854535662,0.522,0.45,1,1,1,867,3
1.17024552888,0.205258689641,0.162326243845,0.0934980629157,0.536,0.45,0,0,1,868,4
0.266155345996,0.241757042856,0.499319908711,1.10810218366,0.561,0.45,3,3,1,869,4
0.2319892068,0.0703451099517,1.13570043237,0.150627234805,0.451,0.45,2,2,1,870,4
0.388524990324,1.09355104902,0.212552494744,0.162718393172,0.342,0.45,1,1,2,871,4
0.107133163633,0.0725867651923,1.00376470219,0.181683510552,0.458,0.45,2,2,1,872,4
0.186371461627,0.0816605622728,0.76762049698,1.01804831604,0.441,0.45,3,3,2,873,4
0.392242713662,1.13210979092,0.113623830178,0.134376625846,0.351,0.45,1,1,2,874,4
0.297738669346,0.15290133646,0.335137231428,1.17594631026,0.41,0.45,3,3,2,875,4
1.19664337724,0.340126805527,0.0624386945597,0.165167386171,0.363,0.45,0,0,2,876,4
0.363258376812,1.00404339145,0.0936613553311,0.0731774431523,0.355,0.45,1,1,2,877,4
1.28270220651,0.268452977513,0.0266959196259,-0.0131093673741,0.395,0.45,0,0,2,878,4
0.287909735646,0.407412148979,1.15106062813,0.0202537937278,0.427,0.45,2,2,2,879,4
1.04323500816,0.121157890602,0.060964654189,-0.0356945733277,0.338,0.45,0,0,2,880,4
0.171838711289,0.0987793609804,1.03896244343,0.277761580396,0.359,0.45,3,2,-1,881,4
0.42708680195,1.14979879805,0.0432547067256,-0.0236806911652,0.393,0.45,1,1,2,882,4
0.200648825412,0.052587416587,1.04230706978,0.0082549368879,0.366,0.45,2,2,2,883,4
0.318113773507,1.26512723922,0.0444472938686,0.042485911858,0.344,0.45,1,1,2,884,4
0.257633244933,0.0783340290421,0.754003717674,1.13029944422,0.467,0.45,3,3,1,885,4
0.158761549828,0.266703258834,1.0176500558,0.23626804444,0.548,0.45,2,2,1,886,4
0.143232624241,0.0470127098897,0.262826035327,1.08660350399,0.677,0.45,3,3,1,887,4
1.03405876184,0.119726689682,0.0660570422363,0.0598861186634,0.511,0.45,0,0,1,888,4
0.128728136552,0.10142222174,1.00180014038,0.261955482473,0.432,0.45,2,2,2,889,4
1.12608325353,0.0464208473214,0.150628311192,0.0503763993312,0.336,0.45,0,0,2,890,4
0.214517092377,1.06123617127,0.176086658935,-0.0182790112416,0.378,0.45,1,1,2,891,4
1.02875009329,0.129166379452,0.0573850595144,-0.0329027714384,0.4,0.45,0,0,2,892,4
0.309746580392,1.04216666296,0.180766750867,-0.0554363607409,0.432,0.45,1,1,2,893,4
0.174740101724,0.168122792112,1.08734056345,-0.00105129757471,0.382,0.45,2,2,2,894,4
0.387605032982,0.151767218318,0.178139021012,1.03898607216,0.431,0.45,3,3,2,895,4
0.384143639513,1.13487469665,0.43538395232,0.0206479664536,0.523,0.45,1,1,1,896,4
0.126014917157,0.0893808676039,0.429356120155,1.01096024138,0.514,0.45,3,3,1,897,4
0.134929316262,0.0831543516376,1.00670958167,0.0111356201138,0.431,0.45,2,2,2,898,4
1.04052256638,0.105901528239,0.0583246758003,-0.0180544423745,0.349,0.45,0,0,2,899,4
0.157617361647,0.122899417406,0.364661008978,1.02464607677,0.43,0.45,3,3,2,900,4
1.15372025564,0.19793656119,0.133199744065,0.0357091111309,0.442,0.45,0,0,2,901,4
0.249704322334,0.16300420418,1.17142726723,0.0605341166876,0.462,0.45,2,2,1,902,4
0.583996070678,1.11187738564,0.174886467787,-0.00456305342274,0.447,0.45,1,1,2,903,4
0.686745593237,1.05146021844,0.0566418440093,-0.0219228503284,0.417,0.45,0,1,-1,904,4
0.204678399462,0.0391478851693,1.00062706724,0.322208526612,0.448000000001,0.45,3,2,-1,905,4
0.440772783234,0.50630013998,1.13700508574,0.179531310317,0.550000000001,0.45,2,2,1,906,4
0.284875020815,1.09563572331,0.37623847113,0.117301764051,0.537000000001,0.45,1,1,1,907,4
0.126555399108,0.0449718951714,1.15175185924,0.775757748935,0.626000000001,0.45,2,2,1,908,4
0.13662242063,0.0325494763662,0.115336465456,1.09409949775,0.496000000001,0.45,3,3,1,909,4
0.422654792829,1.00816511777,0.162171299432,0.191881469481,0.514000000001,0.45,1,1,1,910,4
1.31721063767,0.107417305944,0.178711113847,0.027325938197,0.492000000001,0.45,0,0,1,911,4
0.20821397134,0.150004906146,1.04774502733,0.073825468142,0.481000000001,0.45,2,2,1,912,4
1.14894863039,0.237542209914,0.15596824886,0.0527249439583,0.472000000001,0.45,0,0,1,913,4
0.36803585105,1.05555502135,0.148861889295,0.00998380380817,0.428000000001,0.45,1,1,2,914,4
0.178909447157,0.0808427143841,0.897081713364,1.06225812591,0.428000000001,0.45,3,3,2,915,4
1.09971878031,0.13039827698,0.416063455499,-0.00309041786357,0.465000000001,0.45,0,0,1,916,4
0.170992680436,0.145005234869,1.02369514809,0.613223086003,0.466000000001,0.45,3,2,-1,917,4
0.484034766203,1.11780385575,0.0862365544697,0.0870080023706,0.444000000001,0.45,1,1,2,918,4
0.240628593612,0.0990258179634,1.12542961069,-0.0231615134513,0.364000000001,0.45,2,2,2,919,4
0.696984983021,1.16652648413,0.104709483796,0.00758863043084,0.376000000001,0.45,1,1,2,920,4
0.0803726056049,0.0236142344209,1.00178862125,0.192421314089,0.326000000001,0.45,3,2,-1,921,4
0.345766338624,1.0714839432,0.0628724244835,0.0950317307807,0.287000000001,0.45,2,1,-1,922,4
1.11769150108,0.0367841594727,0.047005412524,-0.00153925902812,0.297000000001,0.45,0,0,2,923,4
0.723817534773,1.16703736544,0.605158398815,0.0217694291007,0.442000000001,0.45,1,1,2,924,4
1.26355462861,0.287342497873,0.0551761865305,-0.00260727791869,0.457000000001,0.45,0,0,1,925,4
0.214129458991,0.848145467085,1.09715937664,0.00563703253859,0.472000000001,0.45,2,2,1,926,4
0.175414881737,0.0165654645124,0.98227642873,1.01987346025,0.439000000001,0.45,3,3,2,927,4
1.05568858168,0.469752394033,0.335013577227,0.242751962701,0.405000000001,0.45,0,0,2,928,4
0.421074175649,0.270297739784,0.481531802143,1.03140684785,0.352000000001,0.45,2,3,-1,929,4
0.138288156889,0.0522319791743,1.14309714095,0.0754246802486,0.330000000001,0.45,3,2,-1,930,4
0.485836619307,1.03592618793,0.0976228227742,0.0831386684715,0.282000000001,0.45,1,1,2,931,4
1.11397568605,0.0946453062782,0.0498648371768,0.0518979850201,0.180000000001,0.45,3,0,-1,932,4
0.982782192627,0.51226752493,1.01219866813,0.585611791176,0.427000000001,0.45,2,2,2,933,4
1.03189517868,0.321150143288,0.0749991607035,0.0459758359872,0.380000000001,0.45,1,0,-1,934,4
1.05024490295,0.183549123,0.0978500558611,0.0749357702433,0.312000000001,0.45,0,0,2,935,4
0.262932552832,0.220958202842,1.22154180305,0.163511489897,0.357000000001,0.45,1,2,-1,936,4
0.488397057421,0.305321659143,1.05292496036,0.130167901708,0.292000000001,0.45,2,2,2,937,4
1.14680973584,0.161205199362,0.106379621038,0.0689012651641,0.332000000001,0.45,0,0,2,938,4
0.265960680409,0.207100172028,1.03049919683,0.249511833884,0.396000000001,0.45,3,2,-1,939,4
1.07140288673,0.201586970957,0.111403042861,-0.0326077825858,0.350000000001,0.45,0,0,2,940,4
0.236631414098,0.113529314125,1.01309819197,0.0377354037979,0.460000000001,0.45,2,2,1,941,4
0.828333634402,1.03436601208,0.06222986725,0.00751052192826,0.511000000001,0.45,1,1,1,942,4
0.181897982685,0.102918936609,0.114725384916,1.19356192311,0.476000000001,0.45,3,3,1,943,4
0.250880159943,0.0743029434008,1.23766947705,0.377455388704,0.581000000001,0.45,2,2,1,944,4
0.155684461268,0.0368271149192,0.229839992309,1.19007111317,0.577000000001,0.45,3,3,1,945,4
1.1803340679,0.0298732783898,0.247908334172,0.00720850515756,0.547000000001,0.45,1,0,-1,946,4
1.26992158299,0.647440054689,0.324560357738,0.121806838853,0.689000000001,0.45,0,0,1,947,4
0.106946070216,0.0443690125984,1.01509709657,0.103872117927,0.558000000001,0.45,3,2,-1,948,4
1.25394250605,0.264495918338,0.0448974458583,0.0287251266471,0.556000000001,0.45,0,0,1,949,4
0.406399309654,1.21838460298,0.0629972582904,-0.0453862707106,0.561000000001,0.45,1,1,1,950,4
0.21410109013,0.170976359459,1.14114259842,-0.0357250744118,0.495000000001,0.45,2,2,1,951,4
1.08224362542,0.0847438450577,0.0406833008087,0.00840405637838,0.487000000001,0.45,0,0,1,952,4
0.413929453644,1.06011680936,0.0467440276814,-0.00654405578676,0.450000000001,0.45,1,1,1,953,4
0.426672316654,1.09353932715,0.525972800326,-0.00467098765134,0.439000000001,0.45,2,1,-1,954,4
0.184796233362,0.0599907308531,0.33245964145,1.07577398523,0.561000000001,0.45,3,3,1,955,4
1.12611191546,0.446319059759,0.123599537893,-0.0147343772293,0.521000000001,0.45,1,0,-1,956,4
0.193930837759,0.170870182599,0.335555584979,0.509125161837,0.7,0.45,3,-1,0,958,4
0.0859053587288,0.0713259112079,0.024910074627,0.142027855386,0.7,0.45,2,-1,0,959,4
0.673381220928,0.681787633681,0.483639361984,0.125288478245,0.7,0.45,0,-1,0,960,4
0.476371574036,0.298677957587,0.46871842641,1.17877718336,0.481000000001,0.45,3,3,1,960,4
1.14411443781,0.212478853276,0.127696366434,0.0187347794355,0.422000000001,0.45,0,0,2,961,4
0.400959420648,0.21565017563,1.09903677002,0.276275288332,0.457000000001,0.45,2,2,1,962,4
0.328485824748,1.03803095026,0.136222545586,0.102097894996,0.398000000001,0.45,1,1,2,963,4
1.10330553439,0.143080683437,0.153004718344,0.128423430795,0.472000000001,0.45,0,0,1,964,4
1.08992568864,0.13591040574,0.104420217832,0.172707086042,0.562000000001,0.45,1,0,-1,965,4
0.220838867657,1.04224344461,0.115656909744,0.0214972481814,0.523000000001,0.45,2,1,-1,966,4
0.285099663977,0.0626873731573,0.104722369356,1.03691601016,0.558000000001,0.45,3,3,1,967,4
0.33031921433,0.110069565521,1.0705219061,0.136871197298,0.538000000001,0.45,2,2,1,968,4
0.335647613143,1.05870708032,0.0518543688536,0.0616806844629,0.439000000001,0.45,1,1,2,969,4
0.27035506266,0.0707634115575,0.131327574345,1.02320231969,0.538000000001,0.45,3,3,1,970,4
1.197920391,0.112219996406,0.0531496252365,0.151658095523,0.590000000001,0.45,0,0,1,971,4
0.218965481686,0.0827665188994,0.169979450719,1.0657473903,0.582000000001,0.45,3,3,1,972,4
0.349898564912,1.11379674603,0.0630394055901,0.137155861654,0.547000000001,0.45,1,1,1,973,4
1.03319624805,0.0905178355978,0.00755177444699,0.072650553107,0.557000000001,0.45,0,0,1,974,4
0.370976856159,0.219258110801,1.18458988767,0.123699466696,0.630000000001,0.45,2,2,1,975,4
1.08398870173,0.0864734882518,0.0819773287376,0.0494952131174,0.492000000001,0.45,0,0,1,976,4
0.33850170686,1.07642249539,0.30468805359,0.0453466461992,0.594000000001,0.45,1,1,1,977,4
0.373951946367,0.121821048555,1.07866858301,0.0815143348421,0.551000000001,0.45,2,2,1,978,4
0.25863570209,0.0829772843779,0.159521996265,1.05333104619,0.478000000001,0.45,3,3,1,979,4
0.29898275037,0.185249807674,1.05684901742,0.13505040141,0.630000000001,0.45,2,2,1,980,4
0.091825503669,1.00578347625,0.0379335071411,0.0437548292278,0.537000000001,0.45,1,1,1,981,4
0.279285194053,0.0628119446637,0.181366643194,1.00714000306,0.563000000001,0.45,3,3,1,982,4
0.43358740202,0.190864727168,0.103314909348,0.0936451303079,0.7,0.45,1,-1,0,984,4
0.347046835799,1.12610872768,0.146568554025,0.104952411651,0.0470000000005,0.45,0,1,-1,984,4
0.27237512606,0.203218080556,0.462394310458,1.04823253599,0.536000000001,0.45,3,3,1,985,4
1.22219555956,0.126536456856,0.0962010867304,0.204412664031,0.541000000001,0.45,0,0,1,986,4
0.0931588106663,0.0441501604676,1.07479511541,0.0762129145172,0.428000000001,0.45,2,2,2,987,4
1.05172765263,0.104552809495,0.0554718070377,0.0476182866685,0.435000000001,0.45,0,0,2,988,4
0.202718354811,1.15266370876,0.058083390516,0.0276394928333,0.412000000001,0.45,1,1,2,989,4
0.413736871449,0.227088766193,0.46713917417,1.02497252,0.437000000001,0.45,3,3,2,990,4
0.182279640379,1.01400893033,0.0408147632724,0.112712639024,0.356000000001,0.45,2,1,-1,991,4
0.16225471551,0.227455782549,0.16388957499,0.993961261093,0.7,0.45,3,-1,0,993,4
0.163840730803,0.227201486282,0.180947501221,1.11805960001,0.0110000000005,0.45,1,3,-1,993,4
0.0832235852132,1.00836710426,0.067472635637,0.222671272442,0.409000000001,0.45,2,1,-1,994,4
1.30666553886,0.028768411756,0.030061791192,0.1325650655,0.456000000001,0.45,0,0,1,995,4
0.165832642382,0.0281874048986,1.00914913298,0.0793039679746,0.386000000001,0.45,3,2,-1,996,4
1.08416644129,0.010848196969,0.0680872641442,0.186969309516,0.602000000001,0.45,0,0,1,997,4
0.0969695084079,0.0259378310275,1.00262941379,0.446022276516,0.507000000001,0.45,2,2,1,998,4
0.374661854288,1.04682893185,0.119180453862,0.0799142908333,0.500000000001,0.45,1,1,1,999,4
1.02809955123,0.0537057704277,0.14450867429,0.06373050199,0.614000000001,0.45,0,0,1,1000,4
0.365966353509,0.159758033532,0.323530901153,1.05632935342,0.625000000001,0.45,3,3,1,1001,4
0.492444453565,1.01518198037,0.143277556658,0.020390335044,0.562000000001,0.45,1,1,1,1002,4
0.0737386182534,0.0409484404729,1.03120789563,0.00903632210104,0.480000000001,0.45,2,2,1,1003,4
0.256278354658,0.0766088219064,0.146347401531,1.0839001196,0.560000000001,0.45,3,3,1,1004,4
0.0387228995211,0.0498109346807,1.02173302075,0.017592608125,0.480000000001,0.45,2,2,1,1005,4
0.20610191821,1.18387133382,0.0842283750225,0.149549897442,0.413000000001,0.45,1,1,2,1006,4
0.0247556406882,0.284680708217,0.297245811503,1.01698192908,0.619000000001,0.45,3,3,1,1007,4
1.12674624161,0.190100935686,0.0867772256563,0.121009423355,0.519000000001,0.45,0,0,1,1008,4
0.0279778551467,0.0510315589205,1.04147893003,0.061864712333,0.387000000001,0.45,2,2,2,1009,4
1.19714879049,0.0369115676169,0.168384569846,0.0915716335796,0.352000000001,0.45,0,0,2,1010,4
0.0635760822326,1.01596251431,0.153878229052,0.0394560582093,0.356000000001,0.45,1,1,2,1011,4
1.01392312444,0.0286688571976,0.158675273398,-0.0489752495265,0.492000000001,0.45,0,0,1,1012,4
0.0398179673174,1.10655488234,0.13067359712,0.00622576603002,0.495000000001,0.45,1,1,1,1013,4
0.352121469427,0.17972641261,0.671806661387,1.05115610544,0.539000000001,0.45,3,3,1,1014,4
0.270642580491,0.540787850905,1.07830825956,0.12092517585,0.555000000001,0.45,2,2,1,1015,4
0.0758794030952,0.0253162747865,0.302942430612,1.03724568281,0.664000000001,0.45,3,3,1,1016,4
0.277467142826,1.05387213683,0.075513292017,0.0223139786535,0.517000000001,0.45,1,1,1,1017,4
0.098975802522,0.0372796089303,1.04389606383,0.907634291265,0.543000000001,0.45,2,2,1,1018,4
1.14495253931,0.0293506465387,0.0890938097218,-0.0265888778524,0.506000000001,0.45,0,0,1,1019,4
0.0163585031298,0.0478405142203,1.06569137016,-0.0760373311863,0.415000000001,0.45,2,2,2,1020,4
0.0439473519796,1.12085168473,0.139979329203,0.0509323675537,0.447000000001,0.45,1,1,2,1021,4
1.02098914326,0.0221016649961,0.0881220030225,0.0357491099153,0.438000000001,0.45,0,0,2,1022,4
0.136671653654,0.109428599438,0.971526731843,1.05013656682,0.621000000001,0.45,3,3,1,1023,4
1.22630055283,0.736456959901,0.0560826987367,0.0855722178028,0.536000000001,0.45,0,0,1,1024,4
0.78456041779,1.07419972431,0.0936782666349,0.0314059850321,0.572000000001,0.45,1,1,1,1025,4
0.00823766967833,0.0368914791946,0.319542506114,1.12018298181,0.499000000001,0.45,3,3,1,1026,4
0.0563041397197,1.08532183771,0.783744552737,0.0233373035069,0.483000000001,0.45,2,1,-1,1027,4
0.287202724822,0.153920410271,0.433948175031,1.1166219296,0.7,0.45,3,-1,0,1029,4
0.287202724822,0.153920410271,0.433948175031,1.1166219296,0.00200000000057,0.45,1,3,-1,1029,4
1.34263256893,1.02885383624,0.116287857354,0.0445354432338,0.145000000001,0.45,2,0,-1,1030,4
0.0697706580356,0.0665830652897,1.03842837696,0.0090742058524,0.0950000000006,0.45,0,2,-1,1031,4
0.0944591885231,0.0560114647269,0.208565419587,1.0680211389,0.422000000001,0.45,3,3,2,1032,4
1.00344547465,0.0520497143259,0.0510596221085,0.0875667135119,0.426000000001,0.45,0,0,2,1033,4
0.0785431760376,0.0349324437022,1.02218926497,0.00577361647301,0.382000000001,0.45,2,2,2,1034,4
1.11956626873,0.0327272396505,0.141041144422,0.0378605378035,0.378000000001,0.45,1,0,-1,1035,4
0.641481871723,0.429013326673,0.282882779573,0.0290974261939,0.7,0.45,0,-1,0,1037,4
1.05827007789,0.385912731634,0.302430652902,0.0690913904903,0.148000000001,0.45,3,0,-1,1037,4
1.1181661257,0.168785093746,0.186194915818,0.0646773737419,0.348000000001,0.45,1,0,-1,1038,4
0.219126344749,0.0799576768337,1.01767901768,-0.0090164728292,0.664000000001,0.45,2,2,1,1039,4
0.0466621047866,0.0292005239826,0.334555606618,1.08390407364,0.617000000001,0.45,3,3,1,1040,4
0.168437274109,0.0353762604558,1.10590428557,0.0617028607123,0.561000000001,0.45,2,2,1,1041,4
0.265103094907,1.04682765276,0.428729522192,0.0215864269057,0.119000000001,0.45,1,1,2,1042,4
0.0705279773727,0.0450922063589,0.520327950519,1.21390975206,0.497000000001,0.45,3,3,1,1043,4
1.10401464281,0.0385293141277,0.092781000416,0.160414521856,0.513000000001,0.45,0,0,1,1044,4
0.221204585483,0.12973983839,1.08558623602,0.0206947386909,0.519000000001,0.45,2,2,1,1045,4
1.1415467642,0.0465236341215,0.13492285077,0.038244276724,0.443000000001,0.45,0,0,2,1046,4
0.374210701374,1.20431666808,0.190666101111,0.0848080023386,0.430000000001,0.45,1,1,2,1047,4
1.063462534,0.0743716256789,0.20746640281,0.267395037397,0.433000000001,0.45,0,0,2,1048,4
0.301801739493,0.132605191568,0.203389605816,1.09109484469,0.544000000001,0.45,3,3,1,1049,4
0.369713250755,0.401206702734,1.17248229909,0.0340525762095,0.540000000001,0.45,2,2,1,1050,4
0.443904057384,1.18569391908,0.204829690186,0.00573685249641,0.506000000001,0.45,1,1,1,1051,4
0.14897705899,0.0911780241494,0.243257257839,1.01416977543,0.604000000001,0.45,3,3,1,1052,4
0.25254500015,1.00451164969,0.116276613245,0.0338440815508,0.655000000001,0.45,1,1,1,1053,4
0.0245585819902,0.0469310975301,1.10684491601,-0.0368084935867,0.596000000001,0.45,2,2,1,1054,4
1.01919086667,0.138201140085,0.0203471865189,-0.0710136884153,0.472000000001,0.45,0,0,1,1055,4
0.0422115665559,0.0449564074868,1.13579497882,-0.00939501466877,0.524000000001,0.45,2,2,1,1056,4
0.0567637090599,0.039555824981,0.977751863843,1.15716333565,0.610000000001,0.45,3,3,1,1057,4
1.14391963205,0.039130402269,0.126097612349,0.115846173157,0.549000000001,0.45,0,0,1,1058,4
0.199207739753,1.13035411564,0.254681332524,0.0306166390376,0.428000000001,0.45,1,1,2,1059,4
1.19137533737,0.0914896304061,0.105982615666,-0.00778962369085,0.453000000001,0.45,0,0,1,1060,4
0.363187117607,0.222581639392,0.841746963826,1.07918769517,0.673000000001,0.45,3,3,1,1061,4
0.108228555483,0.694325127253,1.18095814693,-0.00188539982759,0.7,0.45,2,-1,0,1063,4
0.108228555483,0.694325127253,1.18095814693,-0.00188539982759,0.00100000000059,0.45,1,2,-1,1063,4
0.109773612149,0.0620693074596,1.06569875537,0.0120225051681,0.433000000001,0.45,2,2,2,1064,4
0.360823410875,0.0458960409747,0.425065251407,1.0811702639,0.590000000001,0.45,3,3,1,1065,4
1.01695341279,0.118776669128,0.169016903595,0.055542120367,0.550000000001,0.45,1,0,-1,1066,4
0.755041187704,1.00049724174,0.212819928939,0.0178491866174,0.0130000000006,0.45,0,1,-1,1067,4
0.0241412160633,0.01843972692,1.01301159553,-0.0905631546262,0.468000000001,0.45,2,2,1,1068,4
1.21856360175,0.0176563644114,0.113242746698,0.0122342522808,0.537000000001,0.45,0,0,1,1069,4
0.232544120574,1.1228887188,0.286417770906,-0.024423455122,0.607000000001,0.45,1,1,1,1070,4
0.033675619373,0.0329571668184,1.12018025633,0.197285827709,0.609000000001,0.45,3,2,-1,1071,4
1.08922011486,0.0277854879874,0.0397982765139,-0.00601796866591,0.530000000001,0.45,0,0,1,1072,4
0.0731022906007,0.44626274069,1.03486253276,-0.016232830752,0.591000000001,0.45,2,2,1,1073,4
1.01534850761,0.466853022152,0.127628319732,-0.0159452343924,0.628000000001,0.45,1,0,-1,1074,4
0.0322540659181,0.0405613604913,1.00691128072,-0.00951236127036,0.570000000001,0.45,3,2,-1,1075,4
0.363828340458,0.316525879994,0.347038146739,0.783850263815,0.7,0.45,2,-1,0,1077,4
0.392158606775,0.327407934119,0.422945136125,1.00696523646,0.0820000000006,0.45,3,3,2,1077,4
0.392042637385,1.06828462777,0.39991071185,0.112715144313,0.607000000001,0.45,1,1,1,1078,4
1.05113528268,0.111438027686,0.1237554553,0.0760632675108,0.533000000001,0.45,0,0,1,1079,4
0.160214442392,1.01603139274,0.156964800161,0.0392466756031,0.636000000001,0.45,1,1,1,1080,4
0.0677315017029,0.288457325548,1.07262000102,0.0483733635917,0.617000000001,0.45,2,2,1,1081,4
1.1100919803,0.0340959875452,0.154518716062,0.057713288747,0.519000000001,0.45,0,0,1,1082,4
0.136046557571,0.0216748022887,0.626880581908,1.02266970203,0.564000000001,0.45,3,3,1,1083,4
1.06456092474,0.0232595080576,0.137608841278,0.1626856366,0.601000000001,0.45,0,0,1,1084,4
0.275733907714,0.269288092088,0.221883785691,0.117011965805,0.7,0.45,2,-1,0,1086,5
0.209196807338,0.227149861825,0.510170241854,1.04247424375,0.514000000001,0.45,3,3,1,1086,5
1.16320724782,0.13578734517,0.0806025210608,0.070499894842,0.457000000001,0.45,0,0,1,1087,5
0.333274111792,1.24656206019,0.0962240069557,0.0723223953718,0.335000000001,0.45,1,1,2,1088,5
1.07980551405,0.0489355403033,0.0904287596131,0.0103115679323,0.486000000001,0.45,0,0,1,1089,5
0.165774260496,0.0837161093459,0.956392363896,1.0285008537,0.451000000001,0.45,3,3,1,1090,5
0.265206407126,1.1197975211,0.0200741649296,0.0163976856904,0.383000000001,0.45,1,1,2,1091,5
0.107639077692,0.0329091159223,0.87041398179,1.06048881894,0.451000000001,0.45,3,3,1,1092,5
0.255161997297,1.06033953139,0.147863819777,0.16383322289,0.382000000001,0.45,2,1,-1,1093,5
1.2109799402,0.0330279887888,0.028332977585,0.0231330050888,0.361000000001,0.45,0,0,2,1094,5
0.0839965544452,0.0211453205989,1.17997483878,0.145014892071,0.335000000001,0.45,2,2,2,1095,5
0.440652227641,1.28907241506,0.0663803763465,0.0535394799248,0.352000000001,0.45,1,1,2,1096,5
0.152606762787,0.0539349105286,1.11613848108,0.195376699877,0.460000000001,0.45,2,2,1,1097,5
1.05248827951,0.0210765448946,0.0359875971898,0.025038567681,0.400000000001,0.45,0,0,2,1098,5
0.100703979191,0.0219693536029,0.392022564846,1.00735536018,0.492000000001,0.45,3,3,1,1099,5
0.393370229016,1.10866660494,0.0257748245929,0.117327026428,0.466000000001,0.45,1,1,1,1100,5
0.131733720294,0.0572098162506,0.349805218846,1.12482798706,0.454000000001,0.45,3,3,1,1101,5
1.24851247438,0.113882505566,0.0748036051695,0.174384066279,0.464000000001,0.45,0,0,1,1102,5
0.139997725759,1.12318020084,0.0969425641336,0.0815521663065,0.405000000001,0.45,1,1,2,1103,5
1.11038020556,0.125599879909,0.03077165525,0.013521868334,0.377000000001,0.45,0,0,2,1104,5
0.191907430831,0.0944703834796,1.1623246725,0.0306308302699,0.325000000001,0.45,2,2,2,1105,5
0.184965236375,0.0278366608529,0.0953762270367,1.0637212188,0.307000000001,0.45,3,3,2,1106,5
0.267456798049,0.304345714038,1.1267923672,0.625411308386,0.478000000001,0.45,2,2,1,1107,5
0.498183171215,1.15530557035,0.0956788832053,0.105271704542,0.402000000001,0.45,1,1,2,1108,5
0.114256481947,0.0559927677477,1.07104676816,0.231769247799,0.416000000001,0.45,2,2,2,1109,5
0.102866503526,0.0455342161041,0.462990035415,1.0664092033,0.465000000001,0.45,3,3,1,1110,5
0.357695730531,1.0854576304,0.199203969853,0.309657455828,0.460000000001,0.45,1,1,1,1111,5
1.03362289436,0.151932449516,0.0571400676547,0.0714288417477,0.413000000001,0.45,0,0,2,1112,5
0.222528000904,1.01913704143,0.205662434501,0.120760626113,0.565000000001,0.45,1,1,1,1113,5
0.204540082069,0.116791705346,0.257140827333,1.11080500197,0.522000000001,0.45,3,3,1,1114,5
1.07191131854,0.189422118812,0.119356786261,0.235898853243,0.558000000001,0.45,0,0,1,1115,5
0.160184563748,0.147793976395,1.09274869549,0.316157506367,0.482000000001,0.45,2,2,1,1116,5
1.1346811916,0.165278406605,0.172569601315,0.167052345879,0.457000000001,0.45,0,0,1,1117,5
0.147111195802,0.0688452103998,0.741059902705,1.01353976045,0.542000000001,0.45,3,3,1,1118,5
0.162626951988,0.073283041741,1.0943791298,0.319535258599,0.577000000001,0.45,2,2,1,1119,5
0.388987970001,1.02380156008,0.189886969297,0.196694587728,0.482000000001,0.45,1,1,1,1120,5
0.0863674145567,0.044363743758,1.07324767752,0.338644370996,0.397000000001,0.45,2,2,2,1121,5
1.02853277945,0.0264823892766,0.182150347665,0.139974094401,0.349000000001,0.45,0,0,2,1122,5
1.0646429451,0.0237676676839,0.491715101747,0.0119102392712,0.357000000001,0.45,1,0,-1,1123,5
0.031736759563,0.0381377167563,0.289112195888,1.39120700607,0.440000000001,0.45,3,3,2,1124,5
1.02869891368,0.0863610449182,0.0882545654644,0.205848739525,0.415000000001,0.45,0,0,2,1125,5
0.17061144737,0.0719154527079,0.241749296043,1.10888968771,0.466000000001,0.45,3,3,1,1126,5
1.06077823021,0.0755027065688,0.0793710082801,0.196935548576,0.311000000001,0.45,1,0,-1,1127,5
0.0858559760344,0.0535490425376,1.01974844016,0.124205553035,0.484000000001,0.45,2,2,1,1128,5
0.16777613666,0.0326576001008,0.221890629775,1.06961182701,0.598000000001,0.45,3,3,1,1129,5
0.13216671584,0.0314116059886,1.05949277928,0.24140721816,0.595000000001,0.45,2,2,1,1130,5
0.358811029841,1.20549695693,0.196699451493,0.105188356177,0.503000000001,0.45,1,1,1,1131,5
1.04514992565,0.0667849486329,0.156168887193,0.0847874220724,0.358000000001,0.45,0,0,2,1132,5
0.141581450526,0.0440520550189,1.15444073534,0.0484305577164,0.361000000001,0.45,2,2,2,1133,5
1.0507008885,0.026769904355,0.184040683687,-0.0102998115392,0.362000000001,0.45,0,0,2,1134,5
0.521176783838,0.0272286861092,0.829661270048,1.09130856099,0.493000000001,0.45,3,3,1,1135,5
0.427285737652,1.10361974904,0.419169012388,0.228952978955,0.370000000001,0.45,1,1,2,1136,5
0.181367077182,0.0352336652405,0.646928145102,1.10879495631,0.428000000001,0.45,3,3,2,1137,5
1.11538341932,0.163690432641,0.292829185601,0.201492382351,0.528000000001,0.45,0,0,1,1138,5
0.612703620016,1.07425041475,0.578582847862,0.0644801893317,0.536000000001,0.45,1,1,1,1139,5
0.328978239575,0.311355827732,0.395140818396,0.166390651552,0.7,0.45,0,-1,0,1141,5
0.308197158397,0.303451601398,1.16173959678,0.428313760793,0.442000000001,0.45,2,2,2,1141,5
0.987016603479,1.10819791289,0.276867001778,0.146009170232,0.472000000001,0.45,1,1,1,1142,5
0.0475513727228,0.12338782605,1.11967268423,0.144629557201,0.429000000001,0.45,2,2,2,1143,5
0.184744718041,0.060839692988,0.318238509994,1.0344351245,0.409000000001,0.45,3,3,2,1144,5
0.200728400126,0.371251288083,1.0099954531,0.321937434261,0.478000000001,0.45,2,2,1,1145,5
1.01352121026,0.0274964270139,0.651206460665,0.170263804433,0.520000000001,0.45,0,0,1,1146,5
0.200924375257,0.132387197345,0.627336768204,1.02789360476,0.570000000001,0.45,3,3,1,1147,5
0.302511247521,1.18938789192,0.331533715627,0.263310793055,0.447000000001,0.45,1,1,2,1148,5
1.05096174924,0.0509052362056,0.31122877349,0.0924975005927,0.503000000001,0.45,0,0,1,1149,5
0.508158267511,1.13326276163,0.370952400052,0.115394920842,0.478000000001,0.45,1,1,1,1150,5
0.168651872333,0.145752368079,1.02327227845,0.0203188311296,0.398000000001,0.45,3,2,-1,1151,5
0.361223394582,0.745975055533,1.00938463372,0.471681494804,0.619000000001,0.45,2,2,1,1152,5
0.4391979313,1.0714305462,0.256560299288,0.0584659966128,0.518000000001,0.45,1,1,1,1153,5
0.0665566746476,0.0646705128103,1.01809100491,0.0924315003113,0.402000000001,0.45,2,2,2,1154,5
0.190756901241,0.151212357065,0.672085620662,1.00369297261,0.485000000001,0.45,3,3,1,1155,5
1.04069199715,0.417097269827,0.165043461691,0.115888867972,0.452000000001,0.45,0,0,1,1156,5
0.0415491563549,0.0258164765471,1.04216982699,-0.0190105848954,0.428000000001,0.45,2,2,2,1157,5
0.401923891781,1.03910997517,0.380575726491,0.105827277774,0.537000000001,0.45,1,1,1,1158,5
1.082945954,0.130063701247,0.231675440407,0.0515391432715,0.601000000001,0.45,0,0,1,1159,5
0.208545068315,0.105452357313,0.283069482171,1.06114987507,0.544000000001,0.45,3,3,1,1160,5
1.04102831613,0.102602785402,0.216384004997,0.13326995445,0.471000000001,0.45,0,0,1,1161,5
0.0741061068537,0.0641843335572,1.04158311092,-0.00366291304992,0.395000000001,0.45,1,2,-1,1162,5
0.173545609603,0.176593927633,0.812839704661,1.01968534052,0.556000000001,0.45,3,3,1,1163,5
0.407602702899,1.05419965417,0.211870242852,0.100321288152,0.524000000001,0.45,1,1,1,1164,5
0.0734299473443,0.0671040407538,1.03163125483,0.0820741850235,0.404000000001,0.45,2,2,2,1165,5
0.168137545395,0.0551138192081,0.778109836642,1.09909205263,0.452000000001,0.45,3,3,1,1166,5
0.212982122709,1.05577737948,0.158072603032,0.139458863703,0.419000000001,0.45,2,1,-1,1167,5
1.08362759846,0.674273538502,0.136859518903,0.0286945465302,0.526000000001,0.45,0,0,1,1168,5
0.128272618279,0.0410939346227,1.05863455445,0.0495985557424,0.563000000001,0.45,2,2,1,1169,5
0.255816222254,1.00739804208,0.0920017525186,0.076426126993,0.588000000001,0.45,1,1,1,1170,5
0.0420268961797,0.0285544026468,0.970856188949,0.296941298473,0.7,0.45,3,-1,0,1172,5
0.0423799477814,0.0283644855745,1.00604416317,0.351991547133,0.0120000000006,0.45,0,2,-1,1172,5
0.201294945874,0.0235269714967,0.252316092062,1.04100285688,0.520000000001,0.45,3,3,1,1173,5
0.27801391592,1.07898674757,0.332590180232,0.137521131736,0.567000000001,0.45,1,1,1,1174,5
1.06780998333,0.03406916851,0.0924798706003,0.0406319936043,0.433000000001,0.45,0,0,2,1175,5
0.190897089867,1.18245413602,0.281283950377,0.0357840830781,0.630000000001,0.45,1,1,1,1176,5
