force_0,force_1,force_2,force_3,rt,rt_threshold,target_finger,selected_finger,score,trial,run
0.115585737313,0.0708366369141,0.0793235915786,0.26861676305,0.7,0.45,2,-1,0,1,0
0.247516181233,0.18827449035,1.11023187498,0.47407916094,0.129,0.45,3,2,-1,1,0
0.201620891803,0.144208070792,0.341285014845,1.30192615689,0.019,0.45,0,3,-1,2,0
0.184298742946,1.23836811179,0.225723148288,0.228326146329,0.426,0.45,1,1,2,3,0
0.272223318702,0.0696518423925,1.08200270924,0.558142197646,0.407,0.45,3,2,-1,4,0
1.31764544815,0.0802552988628,0.105553544311,0.238694517956,0.386,0.45,1,0,-1,5,0
1.63469656007,0.0567530607879,0.0657677476401,0.134815671635,0.445,0.45,0,0,2,6,0
0.132977672133,0.0614521686526,0.0627714369642,1.36640909167,0.564,0.45,3,3,1,7,0
0.144755634011,0.0480351143276,1.05567738358,0.0991775213948,0.356,0.45,2,2,2,8,0
0.134453384722,1.38524113958,0.0787399615795,0.0961850813869,0.431,0.45,1,1,2,9,0
0.137751574764,0.0498778207133,1.46483390005,0.0941612064778,0.457,0.45,2,2,1,10,0
1.05229242537,0.0627962097904,0.0471317766002,0.0889947267215,0.441,0.45,0,0,2,11,0
0.0987290296589,0.0927713240292,0.162840398692,0.0907862770118,0.7,0.45,2,-1,0,13,0
0.100389913781,0.0667372310027,1.70733590033,0.0862469839821,0.24,0.45,0,2,-1,13,0
0.088911983348,0.0626357294981,0.0391501184377,1.15496824837,0.499,0.45,3,3,1,14,0
1.76691795411,0.0525891005328,0.0291598258697,0.0444630907796,0.48,0.45,1,0,-1,15,0
0.0510149206805,0.054052683686,0.0727722598512,1.32193168621,0.7,0.45,3,-1,0,17,0
0.0510149206805,0.054052683686,0.0727722598512,1.32193168621,0.023,0.45,0,3,-1,17,0
0.0726530505312,1.05926816026,0.0324419192285,0.0532066569503,0.485,0.45,1,1,1,18,0
0.136523859238,0.0891676829954,1.25861265368,0.0297308185531,0.299,0.45,2,2,2,19,0
0.0765770475689,1.08373612113,0.0453846126156,0.0626137162696,0.496,0.45,1,1,1,20,0
2.49433717001,0.0548171133347,0.000332399954906,0.128400263342,0.447,0.45,0,0,2,21,0
0.100424549517,0.0523786292428,1.93734259816,0.0456203203423,0.566,0.45,2,2,1,22,0
0.0886805452678,0.0542236005268,0.054790870164,1.28713774732,0.399,0.45,3,3,2,23,0
0.198470942139,1.02520471276,0.0624526301425,0.0561333919113,0.327,0.45,2,1,-1,24,0
0.0704292165232,1.97299755463,0.0396946036458,0.063352466373,0.318,0.45,1,1,2,25,0
0.0686229125952,0.0338837412213,0.0617181295917,1.19369954771,0.413,0.45,3,3,2,26,0
2.49600248863,0.0386975100573,0.0261759321837,0.0547458458155,0.479,0.45,0,0,1,27,0
0.157441662135,1.21246543713,0.0552170399158,0.0590718010223,0.514,0.45,1,1,1,28,0
1.52339047698,0.0374710547765,0.0406164345019,0.0498636581865,0.519,0.45,0,0,1,29,0
0.0745082205119,0.0501324171072,0.0369460862561,1.03550378803,0.497,0.45,3,3,1,30,0
0.0883025011284,0.0539451201049,1.48231024402,0.0568765216127,0.396,0.45,2,2,2,31,0
0.0756518653874,0.0580971241288,0.0439089335514,1.03795671066,0.488,0.45,3,3,1,32,0
2.08027796602,0.0851296686932,0.109413357349,0.129191323079,0.523,0.45,1,0,-1,33,0
0.0845258291971,0.0467478451377,1.0694807268,0.200459934705,0.611,0.45,2,2,1,34,0
0.194290421328,1.19814469493,0.0375985554205,0.0700366712292,0.591,0.45,0,1,-1,35,0
0.0740669967041,0.0473960647828,0.973810383274,2.04024086174,0.541,0.45,2,3,-1,36,0
0.0796978701021,0.0737799286609,1.57112189685,-0.00153049215164,0.569,0.45,1,2,-1,37,0
0.116962334271,1.34939051594,0.0704311147066,0.10954405921,0.465,0.45,0,1,-1,38,0
0.0762271423308,0.0508512847565,0.047477199704,0.188708250898,0.7,0.45,3,-1,0,40,0
0.226394429001,0.13778628917,0.156068636606,0.169711628388,0.7,0.45,0,-1,0,41,0
0.181895319526,0.0865052313975,0.0934415745434,0.113540221256,0.7,0.45,1,-1,0,42,0
0.109554915335,0.0415913174776,0.0517770618814,1.08433284512,0.65,0.45,3,3,1,42,0
0.130945517845,1.37900954195,0.038476894975,0.0964111188658,0.63,0.45,1,1,1,43,0
0.0867199749824,0.0472197417195,1.02546382713,0.0940221358247,0.504,0.45,2,2,1,44,0
1.28668902865,0.042808895662,0.0549112211584,0.0863820099245,0.403,0.45,0,0,2,45,0
0.0860803680335,0.0453602755172,1.10942500682,0.0844607255136,0.355,0.45,2,2,2,46,0
0.0924924994729,0.0366912992114,0.0841627637419,1.08643225121,0.481,0.45,3,3,1,47,0
0.0833225422483,0.0465238937233,0.0955727813116,0.0728033351856,0.7,0.45,2,-1,0,49,0
0.0934714563214,0.041073454247,1.20547981063,0.0752518966847,0.211,0.45,3,2,-1,49,0
0.0917857315339,1.43420740714,0.0547537431233,0.0780764785264,0.501,0.45,1,1,1,50,0
1.77573334283,0.0446470827236,0.0546948717478,0.0683785681635,0.511,0.45,0,0,1,51,0
0.0799970063758,1.40707925064,0.0545643061145,0.0545720489507,0.548,0.45,1,1,1,52,0
0.0916298572645,0.0394605877191,0.0478458103562,1.49201761749,0.508,0.45,3,3,1,53,0
1.22037821797,0.0353014451004,0.047592345637,0.0186496052825,0.545,0.45,0,0,1,54,0
0.10923595309,0.0424143519345,1.32667357527,0.0250919593958,0.399,0.45,2,2,2,55,0
0.104725742093,1.26266345276,0.0555711221665,0.0218426401678,0.41,0.45,1,1,2,56,0
0.140107386161,0.0392911546736,1.37467665985,0.0139799309121,0.614,0.45,2,2,1,57,0
0.0950445642494,1.42059352339,0.0464661965932,0.023982195449,0.54,0.45,0,1,-1,58,0
0.0803133281249,0.054775401455,0.0387894864432,1.66105137582,0.629,0.45,3,3,1,59,0
0.0978913507091,0.0547027949804,1.0708558739,0.0318978635961,0.444,0.45,2,2,2,60,0
1.58427587207,0.0659083488135,0.0625115872084,0.0440908494529,0.512,0.45,0,0,1,61,0
0.0988509373715,0.0509446457863,0.0900902093052,1.38844331453,0.613,0.45,3,3,1,62,0
0.09526859783,1.00750307156,0.0483302055241,0.0569477958026,0.548,0.45,1,1,1,63,0
1.46245402435,0.0802913125925,0.0385470955489,0.0448244094893,0.557,0.45,0,0,1,64,0
0.0655261642651,0.0675377885849,0.0612396171747,0.0528767667584,0.7,0.45,1,-1,0,66,0
0.0638921467707,0.063500190769,0.0727794240474,1.04136450501,0.537,0.45,3,3,1,66,0
0.628739243577,1.07881000376,0.0467847911522,0.0405908217253,0.658,0.45,0,1,-1,67,0
0.0403690851962,0.0560011231198,1.00519166873,0.215478198831,0.585,0.45,2,2,1,68,0
0.0565143349885,0.16533513863,0.151955639594,0.0602205979026,0.7,0.45,1,-1,0,70,0
0.053018808901,0.0641234122387,0.16399939769,1.49477475225,0.521,0.45,2,3,-1,70,0
0.0518087561678,0.137898822248,0.121832614467,0.349398885242,0.7,0.45,3,-1,0,72,0
0.258079900236,0.168518026123,0.219823010442,0.147608222356,0.7,0.45,2,-1,0,73,0
0.104497033339,0.054038521503,0.0620560032285,1.16337960491,0.667,0.45,3,3,1,73,0
1.46873527416,0.0479960410409,0.0522625322988,0.071485440104,0.568,0.45,0,0,1,74,0
0.0490603172549,1.07509029866,0.0539642793128,0.0630551804161,0.573,0.45,1,1,1,75,0
1.12298049009,0.139814327998,0.0371591846758,0.0683090576861,0.605,0.45,0,0,1,76,0
0.0517124552369,0.0665197576883,0.0434355667787,0.279410708564,0.7,0.45,3,-1,0,78,0
0.0745620516155,1.20119711391,0.0396070863594,0.0635913644313,0.691,0.45,1,1,1,78,0
0.0764811428854,0.0629996077003,0.128300869814,0.0577400997615,0.7,0.45,2,-1,0,80,0
1.32305571271,0.0554970266818,0.0651304110755,0.0554402342433,0.481,0.45,0,0,1,80,0
0.109389803217,0.0456560037511,1.01540681905,0.04951540648,0.429,0.45,2,2,2,81,0
0.10932364296,1.18315341936,0.0393654644644,0.0598072896185,0.521,0.45,1,1,1,82,0
0.107886970187,0.0476512957951,1.15510289542,0.0437241621344,0.368,0.45,3,2,-1,83,0
0.104304166558,0.0469042005291,1.08026724737,0.0788048428001,0.457,0.45,2,2,1,84,0
0.0975482189613,0.0468765607638,0.0469028511552,0.18707884387,0.7,0.45,3,-1,0,86,0
0.0928401518585,0.0468756994961,0.0401209377318,1.28749193042,0.291,0.45,0,3,-1,86,0
0.10619573121,1.39251142874,0.10672930634,0.108963210293,0.61,0.45,1,1,1,87,0
0.087825040657,0.0618261057444,0.0915527308683,1.34389612079,0.581,0.45,3,3,1,88,0
0.0862627889502,1.01050706242,0.0589862980168,0.059433029887,0.581,0.45,1,1,1,89,0
1.61848713205,0.0703931869853,0.0732106342202,0.0973130197988,0.552,0.45,0,0,1,90,0
0.0989383613686,0.341779411944,1.08052066257,0.541310271109,0.583,0.45,2,2,1,91,0
1.26052442053,0.751771428346,0.0473693808662,0.0615163156405,0.643,0.45,0,0,1,92,0
0.0665093245142,0.0805914000305,0.141404269719,1.07273702566,0.645,0.45,3,3,1,93,0
0.0673888902449,0.0785177772568,1.11314449329,0.0402072492612,0.513,0.45,2,2,1,94,0
0.0856462106889,1.34025736407,0.0628701416528,0.0461591696066,0.352,0.45,1,1,2,95,0
0.0803557062846,0.0703581559566,1.70126097395,0.0419431914304,0.471,0.45,2,2,1,96,0
0.0878715121979,0.0703179258537,0.0391456111481,1.21926844973,0.425,0.45,3,3,2,97,0
1.60043010927,0.219562567617,0.0390668222603,0.0393409821141,0.516,0.45,0,0,1,98,0
0.00892303528485,1.25050846288,0.0285423350226,-0.0248418733244,0.492,0.45,1,1,1,99,0
0.0738050118795,1.24603356039,0.0476596839621,0.0449002680143,0.549,0.45,0,1,-1,100,0
0.0692684235492,0.0623771089381,0.0397834626363,1.31154015712,0.639,0.45,3,3,1,101,0
0.0746160005224,1.15913668001,0.0681056416905,0.0424553548686,0.613,0.45,1,1,1,102,0
0.0742391149105,0.062821082256,1.5110452156,0.0235184004726,0.508,0.45,2,2,1,103,0
0.0786506311886,1.27502844697,0.0625362918447,0.0338715534428,0.485,0.45,0,1,-1,104,0
0.0629091123889,0.0786124927673,0.317906508668,1.66065154124,0.359,0.45,2,3,-1,105,0
0.0759520687745,0.859355211428,1.01619263531,0.0350755935297,0.659,0.45,1,2,-1,106,0
0.0677848928791,0.0825660769351,0.0561291815064,0.0533656614128,0.7,0.45,3,-1,0,108,0
0.277976068016,0.120677912913,0.0962227016495,0.148124824103,0.7,0.45,2,-1,0,109,0
0.111761633195,0.142355885345,1.15172302484,0.306312138045,0.232,0.45,0,2,-1,109,0
1.44513650566,0.0668544125031,0.0611898295679,0.0544398318434,0.066,0.45,1,0,-1,110,0
0.101208256507,0.0634007270139,1.22580039878,0.0398921017532,0.282,0.45,3,2,-1,111,0
0.105638567371,0.0900413902333,0.0469237292571,0.0953417633603,0.7,0.45,0,-1,0,113,0
0.100675942428,0.0729496331978,0.0959125262608,1.49003504114,0.642,0.45,3,3,1,113,0
0.108220665494,1.47061307652,0.0567546059028,0.0697370074803,0.59,0.45,1,1,1,114,0
0.101992732851,0.0557191516468,1.42753410772,0.0660716621589,0.346,0.45,2,2,2,115,0
1.03714839546,0.161020660089,0.149663941938,0.146694968294,0.429,0.45,1,0,-1,116,0
1.55773865575,0.162403770519,0.172033995922,0.158657151858,0.467,0.45,0,0,1,117,0
0.1056694784,1.02932775798,0.152848297651,0.105836303026,0.526,0.45,2,1,-1,118,0
0.0972146703725,0.0784855710295,0.374919942528,1.05492575834,0.689,0.45,3,3,1,119,0
0.106102371497,0.0781862074951,1.23479944459,0.0705613664286,0.552,0.45,2,2,1,120,0
0.105222451629,1.18273569449,0.056300179959,0.0843902047191,0.392,0.45,1,1,2,121,0
0.125520290505,0.0686056873822,0.0627662816877,1.21213738597,0.543,0.45,3,3,1,122,0
1.08288842085,0.0632180799316,0.0625373918137,0.0671384287983,0.492,0.45,0,0,1,123,0
0.064758599482,1.31398059702,0.0720143909398,0.0639212096049,0.606,0.45,1,1,1,124,0
0.0655961414625,1.01529420629,0.0510044697028,0.0772801716329,0.525,0.45,0,1,-1,125,0
0.0629774872974,0.0550498336364,0.0543540861403,1.02801328701,0.603,0.45,3,3,1,126,0
0.0609488477187,0.0547484102146,1.1755609962,0.0138512363414,0.417,0.45,2,2,2,127,0
1.03204930523,0.470048203703,0.0465760298033,0.0134396169961,0.501,0.45,0,0,1,128,0
0.0356600978824,0.0628375078915,1.11503324202,0.0195691485385,0.402,0.45,2,2,2,129,0
0.0416269906143,0.0561581673224,0.304732168645,1.08542533061,0.437,0.45,3,3,2,130,0
0.0489975277317,1.16246936045,0.063442131661,0.0102630829042,0.584,0.45,1,1,1,131,0
0.0481033842091,0.0552143983007,1.01095699368,0.00670078918126,0.402,0.45,2,2,2,132,0
0.0633155444876,1.23859769942,0.0465428318596,0.0128697183979,0.518,0.45,0,1,-1,133,0
0.0978113032429,1.71015863993,0.0569462840099,-0.00632646894334,0.633,0.45,1,1,1,134,0
0.0594577438156,0.0783668840279,0.0482197890762,1.55441927988,0.561,0.45,3,3,1,135,0
1.41907706984,0.415757252663,0.0391526574381,-0.0361108500017,0.538,0.45,0,0,1,136,0
0.0445680314356,0.0562582076011,0.0540435685328,1.24849362985,0.566,0.45,3,3,1,137,0
0.231867013187,0.135275611048,0.124577390394,0.567404240268,0.7,0.45,1,-1,0,139,0
0.142753920199,0.176481072831,0.224842415561,0.20326761286,0.7,0.45,2,-1,0,140,0
0.123726325553,0.188924279248,1.00664952235,0.191964964831,0.106,0.45,3,2,-1,140,0
0.0730197982049,0.218107037621,1.03793986784,0.0954159544174,0.586,0.45,2,2,1,141,0
0.0692544303299,1.36384066302,0.176947883525,0.145498190533,0.516,0.45,1,1,1,142,0
1.69399366826,0.125062197636,0.141826133866,0.109992705683,0.366,0.45,0,0,2,143,0
0.12926942827,0.222665786757,1.01763110887,0.0985856515206,0.401,0.45,2,2,2,144,0
0.121366021644,0.0689157332875,0.0549723092196,1.15844504622,0.339,0.45,3,3,2,145,0
0.130542367762,1.06105791224,0.192935221334,0.0809039254548,0.55,0.45,0,1,-1,146,0
0.138440478928,1.34937174307,0.108428003702,0.0764142654487,0.486,0.45,1,1,1,147,0
0.114030052371,0.0632101148763,0.0827129023535,1.21755406431,0.533,0.45,3,3,1,148,0
0.233712306422,1.03937518706,0.0802091213385,0.0774317871479,0.68,0.45,1,1,1,149,0
1.36384179406,0.16969597046,0.0643164030046,0.0788226068474,0.7,0.45,0,-1,0,151,0
1.36384179406,0.16969597046,0.0643164030046,0.0788226068474,0.0190000000001,0.45,2,0,-1,151,0
0.0588044721192,1.54486643342,0.0692232012323,0.061347224016,0.515,0.45,1,1,1,152,0
0.0654950699744,0.0783293669822,1.13453527409,0.0570246936019,0.439,0.45,2,2,2,153,0
0.715498352346,0.845716645066,0.0547404233759,0.0326785437125,0.7,0.45,0,-1,0,155,0
0.0793742610637,0.0684649004628,0.0565337575214,1.02532319827,0.513,0.45,3,3,1,155,0
0.0765472970811,0.0632595073216,1.08780087446,-0.00674491640611,0.361,0.45,2,2,2,156,0
0.0742587434158,1.02993231549,0.0551075395348,-0.0081454733884,0.336,0.45,1,1,2,157,0
0.0832617656082,0.0938922073116,0.0547060271004,1.17489021488,0.564,0.45,3,3,1,158,0
0.330606453526,1.0500114405,0.070603966609,0.0685075441832,0.609,0.45,0,1,-1,159,0
0.0594607321577,0.0478537620964,0.062402553568,1.24473386677,0.573,0.45,3,3,1,160,0
0.0576928011558,0.838728469744,0.0624925734574,0.0215779010714,0.7,0.45,1,-1,0,162,0
0.0611169792462,1.02635888093,0.0624931343519,0.0199497221555,0.0490000000001,0.45,0,1,-1,162,0
0.0498208955269,1.03681105044,0.0470669380201,0.00914634191663,0.311,0.45,1,1,2,163,0
0.0904769092998,0.626725395384,1.33347816375,0.0441862844879,0.675,0.45,2,2,1,164,0
0.0653848805139,0.057476603575,0.0715902657068,0.0185166231702,0.7,0.45,0,-1,0,166,0
0.143494786663,0.195320843854,0.181209764565,0.448178458118,0.7,0.45,2,-1,0,167,0
0.346891002303,0.165403353833,0.266299596542,1.02143312873,0.7,0.45,3,-1,0,168,0
0.346891002303,0.165403353833,0.266299596542,1.02143312873,0.0250000000001,0.45,2,3,-1,168,0
0.2305133741,0.125173593471,0.301634403187,1.36194567486,0.576,0.45,3,3,1,169,0
0.49207215167,1.27826490674,0.375038150046,0.21500501938,0.58,0.45,1,1,1,170,0
1.11645402259,0.109173164825,0.327624366791,0.256396186561,0.555,0.45,0,0,1,171,0
0.227477545992,1.26568275556,0.296171216998,0.16764407164,0.506,0.45,1,1,1,172,0
0.498605641794,0.0733553270256,0.397974887118,1.08449497327,0.498,0.45,3,3,1,173,0
1.5036133595,0.0671839285918,0.354456712357,0.280856900154,0.471,0.45,0,0,1,174,0
0.217270207693,0.0528834909603,0.517356103193,1.25438841556,0.474,0.45,3,3,1,175,0
0.169890978632,0.0544138292095,1.21746646102,0.315651741736,0.397,0.45,2,2,2,176,0
1.33183993019,0.054662353623,0.132979115491,0.185876456985,0.489,0.45,0,0,1,177,0
0.110675010437,0.049540933729,1.0364036618,0.145102851957,0.39,0.45,2,2,2,178,0
0.266736939579,1.20752953736,0.112770754954,0.100153265546,0.561,0.45,1,1,1,179,0
0.110732690679,0.0560262213582,1.27434184633,0.0947767104038,0.489,0.45,2,2,1,180,0
0.147950662928,0.0548028591994,0.129032902633,1.14696409538,0.409,0.45,3,3,2,181,0
1.65503406062,0.07854538809,0.086396520995,0.0465983939368,0.493,0.45,0,0,1,182,0
0.130204762038,1.13483713412,0.0890982985056,0.0539375089784,0.503,0.45,1,1,1,183,0
0.133862663151,0.078681597848,1.00066072293,0.0633244984614,0.349,0.45,3,2,-1,184,0
0.0852541697798,1.14980286106,0.228051085588,-0.0550328377062,0.521,0.45,1,1,1,185,0
1.5907156409,0.0551426123017,0.052226554937,0.0247485313085,0.522,0.45,0,0,1,186,0
0.0805713231507,0.0561130853902,0.198527434604,1.06716076436,0.498,0.45,3,3,1,187,0
0.06463826544,0.0942742001665,1.11201942915,0.0736126454383,0.391,0.45,2,2,2,188,0
1.11649820407,0.150025471426,0.208112902845,0.128316641352,0.694,0.45,0,0,1,189,0
0.155635009604,0.0688705924388,1.01301897222,0.442449976154,0.57,0.45,2,2,1,190,0
1.0213871705,0.317876705172,0.370304232197,0.300753309567,0.434,0.45,1,0,-1,191,0
0.136740220506,1.01531166091,0.28084568941,0.151830188195,0.376,0.45,2,1,-1,192,0
0.150846882237,1.33667557565,0.221480565042,0.253378002891,0.434,0.45,1,1,2,193,0
1.14128495951,0.16261364716,0.21949415749,0.206721222033,0.385,0.45,0,0,2,194,0
0.290388179884,0.130600673024,0.372072577864,1.02449413526,0.477,0.45,3,3,1,195,0
1.14908281234,0.169092594053,0.313948234283,0.293642916371,0.49,0.45,0,0,1,196,0
0.134659505771,1.24144337446,0.256921279458,0.186423652056,0.466,0.45,1,1,1,197,0
0.229542113688,0.0473458026868,0.520181190954,1.10497917037,0.47,0.45,3,3,1,198,0
1.39806661845,0.0624339368853,0.320312973515,0.267010144759,0.52,0.45,1,0,-1,199,0
0.100123968352,0.0497033729608,1.28338540042,0.478871214809,0.571,0.45,2,2,1,200,0
0.11836664571,0.0722238936852,0.110339727151,1.32199555367,0.516,0.45,3,3,1,201,0
0.112236702411,0.0558020694009,1.20076421369,0.19185030449,0.493,0.45,2,2,1,202,0
1.44050343607,0.0668992381948,0.166341060968,0.191004413201,0.473,0.45,0,0,1,203,0
0.0887501237251,0.0534619289363,1.21832345865,0.206562919957,0.5,0.45,2,2,1,204,0
0.0965008066747,1.04338045891,0.237529965783,0.128493418095,0.5,0.45,1,1,1,205,0
1.44333943571,0.0438664100407,0.221129005832,0.206352618193,0.39,0.45,0,0,2,206,0
0.0802810314342,0.0726501716601,0.468737188452,1.16752767052,0.501,0.45,3,3,1,207,0
1.19058785028,0.0680727072483,0.132534144183,0.280423112623,0.566,0.45,0,0,1,208,0
0.13260143404,1.17890009735,0.128030645117,0.110974757989,0.514,0.45,1,1,1,209,0
0.129331209931,0.0783497755035,0.167312349846,1.22838218664,0.441,0.45,3,3,2,210,0
0.139053469709,0.285401056563,1.28712764001,0.157430606924,0.525,0.45,2,2,1,211,0
1.23487450329,0.225167268452,-0.00372066065786,0.103148859519,0.67,0.45,0,0,1,212,0
0.117468711174,0.077977754548,1.03713707242,0.101682814181,0.488,0.45,2,2,1,213,0
0.117633089802,0.0505863939965,0.0698527976537,1.17667528123,0.386,0.45,3,3,2,214,0
1.49992373632,0.0472164681613,0.078178388367,0.113766786369,0.474,0.45,1,0,-1,215,0
0.0922315674282,0.0827243700308,1.06151037727,0.760032060565,0.7,0.45,2,-1,0,217,0
0.895659355421,0.472359761,0.33878719157,0.308355890012,0.7,0.45,0,-1,0,218,1
1.23316900965,0.438097381646,0.331353032628,0.311756943361,0.0480000000001,0.45,1,0,-1,218,1
0.246048256259,0.0940912849787,1.06227689493,0.237801314922,0.327,0.45,2,2,2,219,1
0.436684485504,0.225421725661,0.389694734563,1.01467776042,0.335,0.45,3,3,2,220,1
0.304129418464,1.26535437795,0.326544400476,0.318504608361,0.335,0.45,2,1,-1,221,1
0.163737752603,1.21958337333,0.260804600688,0.220161526641,0.396,0.45,1,1,2,222,1
1.21631441697,0.20432728385,0.282527743664,0.271122786502,0.267,0.45,3,0,-1,223,1
1.18708569683,0.116205858533,0.295450654423,0.330485996251,0.408,0.45,0,0,2,224,1
0.420574291434,0.267826451793,1.19963996002,0.317600332583,0.33,0.45,2,2,2,225,1
0.377539649547,1.08105506951,0.40567469973,0.324725583625,0.485,0.45,0,1,-1,226,1
0.472821680093,0.0719280270088,0.312125006585,1.07577425945,0.525,0.45,3,3,1,227,1
0.18497566583,1.16379873103,0.325198962049,0.318802048848,0.461,0.45,1,1,1,228,1
1.40799100256,0.131401415434,0.302371399376,0.26290142544,0.495,0.45,0,0,1,229,1
0.273202007653,0.115358683182,1.27023113597,0.326859116077,0.365,0.45,2,2,2,230,1
0.113365890158,1.00543683272,0.31661641656,0.288301366317,0.375,0.45,1,1,2,231,1
0.351850669965,0.110884272987,0.313059587573,1.09022409098,0.557,0.45,3,3,1,232,1
0.127529284994,1.23077746029,0.263537687024,0.175073663831,0.565,0.45,1,1,1,233,1
0.0989643202659,0.051499170021,1.12067260039,0.262047731183,0.463,0.45,2,2,1,234,1
0.150910247889,0.0833995817017,1.00269578419,0.41742157385,0.447,0.45,3,2,-1,235,1
0.14864470452,0.0929941862123,1.51003745278,0.303519431087,0.539,0.45,2,2,1,236,1
1.01704960429,0.168845219432,0.369310722306,0.321587442111,0.435,0.45,0,0,2,237,1
0.100907576286,1.01432218418,0.235479939107,0.160067945086,0.521,0.45,1,1,1,238,1
1.11076614865,0.0474916552651,0.100350867175,0.242367371555,0.534,0.45,0,0,1,239,1
0.0863148395386,0.046928008399,0.166472207822,1.08571490909,0.515,0.45,3,3,1,240,1
1.51445540105,0.0468806225439,0.142763878099,0.193634211528,0.557,0.45,0,0,1,241,1
0.0665738268223,0.0468758469678,0.187614141813,1.17354747537,0.485,0.45,3,3,1,242,1
0.264469164231,1.02462527742,0.34603932336,0.0919888299645,0.655,0.45,1,1,1,243,1
0.0946316437042,0.063578680732,1.28278740489,0.063471765865,0.476,0.45,2,2,1,244,1
1.44323126158,0.059840435974,0.0912058328419,0.110643649281,0.456,0.45,1,0,-1,245,1
0.115229585796,0.0969017458379,0.0664668245171,1.38433728137,0.575,0.45,3,3,1,246,1
0.119286449543,0.0604527919025,1.37390913963,0.141221579222,0.447,0.45,2,2,2,247,1
0.120097476618,0.0552995056415,0.0626968945338,1.11285407145,0.488,0.45,3,3,1,248,1
1.29925149199,0.0547651621033,0.0625188424541,0.0548569494114,0.473,0.45,0,0,1,249,1
0.111264710887,1.00353452089,0.0625027672149,0.0547038902505,0.408,0.45,2,1,-1,250,1
1.13816513166,0.0661082449671,0.10932048206,0.054688526533,0.623,0.45,0,0,1,251,1
0.0694081318775,1.58664303441,0.0622291752535,0.0337045539244,0.595,0.45,1,1,1,252,1
1.33486697724,0.0643937933198,0.0977140878485,0.0406839825235,0.625,0.45,0,0,1,253,1
0.102024945585,1.2629156003,0.130685291222,0.0187133313325,0.634,0.45,1,1,1,254,1
0.104866665466,0.0796644883879,1.57476393153,0.0205747886174,0.448,0.45,2,2,2,255,1
0.114243678649,0.0744061650856,0.0647419423756,1.29762603492,0.377,0.45,3,3,2,256,1
0.119709713718,0.0752788040797,1.28460951188,0.0404529390609,0.376,0.45,2,2,2,257,1
0.127447159011,1.42663627409,0.0629580685976,0.039177762802,0.336,0.45,1,1,2,258,1
1.11126240012,0.0705649846058,0.0625444592708,0.0390781015561,0.296,0.45,3,0,-1,259,1
1.90083848956,0.0703255653991,0.063077661586,0.047066495044,0.45,0.45,0,0,1,260,1
0.126147516572,0.0589193334495,1.08021706249,0.237047833756,0.414,0.45,3,2,-1,261,1
0.129624557562,1.17964938674,0.110825318136,0.0583384993649,0.576,0.45,1,1,1,262,1
1.75101292846,0.0584337959934,0.0901509050814,0.147772611917,0.615,0.45,0,0,1,263,1
0.0886449356063,0.0627093834733,1.21202349303,0.0603649776543,0.459,0.45,2,2,1,264,1
1.17164111822,0.915982664487,0.831588409417,0.555633500297,0.497,0.45,0,0,1,265,1
0.117476955031,1.05454827086,0.624580184887,0.275897430921,0.695,0.45,1,1,1,266,1
0.0988112644154,0.0885962352753,0.425278719289,1.01513100891,0.543,0.45,3,3,1,267,1
0.142221487918,0.164279020348,1.00870130695,0.774146414398,0.442,0.45,2,2,2,268,1
0.252624345965,0.335203861486,0.481461215995,1.08558282291,0.656,0.45,3,3,1,269,1
0.17533620655,1.46734536831,0.463710345661,0.344295938991,0.525,0.45,1,1,1,270,1
0.0916084487284,0.116466497062,1.11912133521,0.966348256612,0.563,0.45,2,2,1,271,1
1.04248240002,0.0864505991659,0.607280453032,0.6872259829,0.537,0.45,1,0,-1,272,1
1.52120071305,0.21443101874,0.31189639126,0.310069106191,0.669,0.45,0,0,1,273,1
0.103438822596,0.0981367008098,1.20979924872,0.497401124818,0.514,0.45,2,2,1,274,1
1.08344091575,0.0872901458041,0.104627148325,0.280148554161,0.495,0.45,0,0,1,275,1
0.0590338775743,0.0866687129816,0.423463841613,1.31907324429,0.445,0.45,3,3,2,276,1
1.16330849911,0.134157346014,0.30533304115,0.283663569456,0.53,0.45,0,0,1,277,1
0.0910834379689,0.0853003053291,1.14275830335,0.358454784886,0.403,0.45,2,2,2,278,1
0.0766113451472,1.01596279817,0.263333188137,0.214971651557,0.355,0.45,1,1,2,279,1
0.243139896912,0.071260974822,0.152387940725,1.53998603942,0.427,0.45,3,3,2,280,1
1.68084159595,0.0713221162722,0.171384349148,0.200665519351,0.366,0.45,2,0,-1,281,1
0.13952224951,0.0703897057401,0.25521287523,1.27246396528,0.513,0.45,3,3,1,282,1
0.155790857156,1.29966875822,0.301823734869,0.204948419298,0.572,0.45,1,1,1,283,1
1.70609902214,0.0624890942569,0.197522636349,0.274461908723,0.496,0.45,0,0,1,284,1
0.0822482112256,0.0662665703373,0.255877856768,1.20097626777,0.448,0.45,3,3,2,285,1
1.61299576777,0.0698759045408,0.134979612685,0.24473718306,0.484,0.45,0,0,1,286,1
0.0573748133466,1.28575975071,0.217612545847,0.169681928952,0.509,0.45,1,1,1,287,1
0.0694545452324,0.0629044431312,1.32139604763,0.134690559157,0.383,0.45,2,2,2,288,1
1.02479327204,0.0625123573098,0.0709085424242,0.220457352215,0.501,0.45,0,0,1,289,1
0.0972522966727,0.0597275069916,0.235183580586,1.45142404949,0.478,0.45,3,3,1,290,1
1.13031590935,0.0622690402926,0.331547747109,0.0438538908292,0.599,0.45,1,0,-1,291,1
0.0788197748381,0.0647012201876,1.10653391821,0.0522697262796,0.447,0.45,2,2,2,292,1
0.350690793681,1.32582316248,0.0574642287735,0.0116076761748,0.592,0.45,1,1,1,293,1
0.0811057454926,0.0553285260306,0.0549899490811,1.32651163773,0.531,0.45,3,3,1,294,1
0.0846887371265,0.0547473166865,1.02674323324,0.047009405945,0.458,0.45,2,2,1,295,1
0.0750478891563,1.24613410166,0.0865095893248,0.0504185870023,0.356,0.45,0,1,-1,296,1
0.0615855793797,1.03027707235,0.0776025000054,0.0491983549955,0.466,0.45,2,1,-1,297,1
0.0581767714918,0.0490821669727,0.0785044106571,1.06107875474,0.493,0.45,3,3,1,298,1
1.49161068352,0.0644378135378,0.0919397264257,0.0347443845911,0.498,0.45,0,0,1,299,1
0.0525291302126,1.50495576639,0.0725260580043,0.00462991591458,0.494,0.45,1,1,1,300,1
1.57466112878,0.0537490254508,0.0596679945358,-0.00773385541848,0.585,0.45,0,0,1,301,1
0.0405268882261,1.06970395492,0.0606013702756,-0.00816464784008,0.555,0.45,1,1,1,302,1
0.0678127605002,0.0596870756999,1.06975891789,0.0166009724283,0.505,0.45,2,2,1,303,1
0.0530965303078,0.067470009109,0.0469981011614,1.19180934643,0.369,0.45,3,3,2,304,1
0.0623560080497,1.509222175,0.0520626212327,0.0475535117769,0.432,0.45,1,1,2,305,1
0.0614141262358,0.0783062376791,1.07962299697,0.0384391124981,0.363,0.45,3,2,-1,306,1
0.0548360940225,0.078134646663,1.28335057875,0.0226585408343,0.45,0.45,2,2,1,307,1
0.0788269460058,1.32623216859,0.0469831325686,0.0355672475197,0.627,0.45,1,1,1,308,1
1.2557887194,0.0382093996697,0.034350824524,-0.116107403898,0.413,0.45,0,0,2,309,1
0.0862395966293,1.23591621737,0.0522556608456,0.0397047451094,0.358,0.45,2,1,-1,310,1
0.0836560913143,1.03597370894,0.0528596264607,0.0317670597898,0.522,0.45,0,1,-1,311,1
0.103935688509,0.0558849282817,0.0285045279269,1.54174896483,0.472,0.45,3,3,1,312,1
1.31727175029,0.0548284595063,0.0555680639498,0.0547108886645,0.415,0.45,0,0,2,313,1
0.100566087137,0.0547012442789,0.0345903617061,1.39720647205,0.486,0.45,3,3,1,314,1
0.119379818772,1.53928724153,0.0578275973005,0.0466353717284,0.514,0.45,1,1,1,315,1
0.0998597465931,0.0706506853368,1.74596542606,0.0402230707612,0.384,0.45,2,2,2,316,1
0.125967033215,1.56077150271,0.0547070096492,0.0383491006045,0.606,0.45,1,1,1,317,1
0.10005068014,0.0472852630022,0.0423375069985,1.16607069689,0.42,0.45,3,3,2,318,1
0.09862044056,1.21186236069,0.03830112413,-0.0214294525113,0.368,0.45,2,1,-1,319,1
2.21617378194,0.355103229759,0.0338787352579,0.106546888019,0.672,0.45,0,0,1,320,1
0.0953431080034,0.0675860944731,2.39032137428,0.0224349245749,0.569,0.45,2,2,1,321,1
0.0801141990927,0.0634723681078,0.0206748491438,1.04896780509,0.383,0.45,3,3,2,322,1
1.92542314982,0.0577503491797,0.0461814145381,-0.0346173599326,0.557,0.45,0,0,1,323,1
0.0967306546734,1.31261799472,0.046749144259,-0.00846219002367,0.42,0.45,1,1,2,324,1
1.97138349569,0.0547769917832,0.0404924217113,0.0141232811725,0.571,0.45,0,0,1,325,1
0.0768719469707,0.053353363121,1.02468939138,0.0110476554235,0.466,0.45,2,2,1,326,1
0.0484311369962,1.63947490641,0.0425566906715,-0.0143572930633,0.531,0.45,1,1,1,327,1
0.0923527551355,0.066600293957,0.0562284008202,1.20349430824,0.511,0.45,3,3,1,328,1
0.0936099695262,0.0673764923205,2.012301316,0.0470926706329,0.543,0.45,2,2,1,329,1
0.0898581273656,0.0585415058258,0.0445129493071,1.30766089785,0.49,0.45,3,3,1,330,1
1.55323785594,0.0551351643336,0.0543696765722,0.027352856381,0.497,0.45,1,0,-1,331,1
0.0897474625728,0.0547302044819,1.77337048337,0.0247497023413,0.576,0.45,2,2,1,332,1
1.16104228302,0.0519829127952,0.046904132087,0.0406937741499,0.504,0.45,0,0,1,333,1
0.0705416087055,1.27009358659,0.0234333002977,0.0990717991662,0.421,0.45,1,1,2,334,1
1.09650167207,0.0604678974221,0.0310835520698,0.0979138682614,0.569,0.45,0,0,1,335,1
0.0649602922326,0.0464761130033,0.0820894282256,1.95504962044,0.498,0.45,3,3,1,336,1
1.24911061796,0.0536854974099,0.0555079691073,0.0375213251655,0.482,0.45,0,0,1,337,1
0.040539524676,0.0426503928272,0.0400867327737,1.58856411598,0.475,0.45,3,3,1,338,1
0.0661960393966,1.08675720062,0.0582376063927,0.0407716867447,0.591,0.45,1,1,1,339,1
0.0700249796492,0.0550273104255,1.290642304,0.0538315823334,0.381,0.45,2,2,2,340,1
1.21093658767,0.827970134169,0.913303368487,0.673820196239,0.467,0.45,3,0,-1,341,1
0.127584779411,0.224608928407,0.430910780433,0.466849559542,0.7,0.45,2,-1,0,343,1
0.173898792078,0.785283267706,1.48578478703,0.462615832434,0.125,0.45,1,2,-1,343,1
0.396983478711,0.0719545990986,0.404290809377,1.347794477,0.488,0.45,3,3,1,344,1
1.2632585691,0.373436255233,0.494579893171,0.512923816596,0.499,0.45,0,0,1,345,1
0.380070780825,1.33641464862,0.549310258128,0.537896818441,0.406,0.45,1,1,2,346,1
1.49813636551,0.431309195173,0.362028156492,0.354893334828,0.528,0.45,0,0,1,347,1
0.129976685197,0.203585012998,1.05685379112,0.426639580692,0.487,0.45,2,2,1,348,1
0.122570057702,0.0850796342398,0.35216102828,1.37419180176,0.427,0.45,0,3,-1,349,1
0.13302500791,0.0823205808592,0.338297678465,1.16999100605,0.351,0.45,2,3,-1,350,1
0.115383900059,0.0605276649369,0.631804079918,1.11970938501,0.555,0.45,3,3,1,351,1
0.111307749892,1.23198342841,0.315532010277,0.119507147088,0.477,0.45,1,1,1,352,1
0.170625391228,0.0652425389729,1.21842181894,0.79122373097,0.533,0.45,2,2,1,353,1
0.454353157475,1.33022662592,0.0789465382778,0.0667570380132,0.508,0.45,1,1,1,354,1
0.0681581729941,0.0472172891648,0.0879888393568,1.16822454965,0.487,0.45,3,3,1,355,1
0.0650164060778,0.17423698564,1.45326510501,0.0469420638814,0.446,0.45,2,2,2,356,1
1.65746873438,0.131929752903,0.0502266230331,0.0412387047906,0.541,0.45,0,0,1,357,1
0.0673865718628,1.27857656541,0.0472491017791,0.0620810820121,0.441,0.45,1,1,2,358,1
1.18408817498,0.058099632923,0.0836889393714,0.0619895858221,0.478,0.45,0,0,1,359,1
0.0938022873959,0.0504863519695,1.03584573884,0.0525736058966,0.434,0.45,3,2,-1,360,1
1.19017245794,0.0398308375231,0.0717385575681,0.0710281566607,0.583,0.45,0,0,1,361,1
0.122834838744,0.0442663281892,1.19480765318,0.070421774009,0.429,0.45,2,2,2,362,1
0.116777770661,1.21916910033,0.0625469980087,0.0975150580608,0.504,0.45,1,1,1,363,1
0.136286791084,0.0482922628724,0.0492189971343,1.37910523235,0.566,0.45,3,3,1,364,1
0.115298104134,1.03961821204,0.0512957546427,0.0703214265477,0.544,0.45,1,1,1,365,1
0.112106033869,0.0489505791677,1.4640486664,0.0487144024267,0.394,0.45,2,2,2,366,1
0.322250489699,0.280717325144,0.585161337905,1.02373303958,0.461,0.45,3,3,1,367,1
1.29869497188,0.34479247271,0.383899889578,0.449840326747,0.472,0.45,0,0,1,368,1
0.33123309232,1.15256750353,0.40472527468,0.412604184274,0.424,0.45,1,1,2,369,1
1.03764609464,0.362359267154,0.334127236172,0.40871997371,0.574,0.45,0,0,1,370,1
0.352735011993,0.0810895471637,0.864463174006,1.36029603986,0.503,0.45,3,3,1,371,1
0.382424888395,0.283279591558,1.01956323714,0.274226356622,0.515,0.45,2,2,1,372,1
1.0024909861,0.285354124411,0.352617481129,0.355979170541,0.631,0.45,0,0,1,373,1
0.154967007093,1.17637913343,0.232824537005,0.158231222769,0.536,0.45,1,1,1,374,1
0.246487076323,0.132222774714,0.900574632264,1.18367322865,0.516,0.45,3,3,1,375,1
0.254801738756,1.24702844063,0.246232338559,0.111818793779,0.602,0.45,2,1,-1,376,1
0.124102319423,1.41666004988,0.34481455192,0.183956241683,0.681,0.45,1,1,1,377,1
0.114609655841,0.041765189606,1.16697497322,0.272441550675,0.522,0.45,2,2,1,378,1
0.136012845006,0.03261761354,0.206145046648,1.12376072955,0.416,0.45,3,3,2,379,1
1.16289901801,0.0327137817908,0.21626787133,0.389393917886,0.445,0.45,0,0,2,380,1
0.123091717586,1.10883014649,0.178968264002,0.188461885912,0.377,0.45,2,1,-1,381,1
1.06733962895,0.0393097640681,0.0750811953058,0.0926182031005,0.497,0.45,0,0,1,382,1
0.0930923668304,0.0390849796608,0.0583161314374,1.3034058037,0.531,0.45,3,3,1,383,1
0.131785478265,1.12760135771,0.0478580054514,0.0416748905947,0.613,0.45,1,1,1,384,1
1.57470061249,0.0470844461621,0.047014571411,0.0385532833767,0.56,0.45,0,0,1,385,1
0.079220798018,0.0468915015725,1.3301258367,0.0389970300605,0.535,0.45,2,2,1,386,1
0.0811868523436,0.0468784386922,0.0472957713356,1.07363763198,0.352,0.45,3,3,2,387,1
0.0907112331741,1.13911341343,0.100892295738,0.0748781902489,0.5,0.45,1,1,1,388,1
0.0860924239454,0.0470849751904,0.102735442959,1.0921063485,0.478,0.45,3,3,1,389,1
0.0852441495868,0.0468986823157,1.00891869246,0.0205349495384,0.37,0.45,2,2,2,390,1
0.265053964247,1.30547360646,0.313834290999,0.301258993709,0.377,0.45,1,1,2,391,1
0.10167550959,0.0637370581738,1.39828277249,0.561804229669,0.521,0.45,2,2,1,392,1
1.20281610885,0.261996188479,0.410077768611,0.389933620847,0.499,0.45,0,0,1,393,1
0.270664422241,1.29234832559,0.459956442899,0.190047963581,0.531,0.45,1,1,1,394,1
1.27849473221,0.310617839053,0.289521770622,0.265515847992,0.593,0.45,0,0,1,395,1
0.276770277215,0.0362391266206,0.308231697765,1.55714413975,0.465,0.45,3,3,1,396,1
1.53188530094,0.0811694109564,0.15320012687,0.109163370818,0.632,0.45,0,0,1,397,1
0.107445559009,0.0522878293314,1.4951382119,0.114283698201,0.47,0.45,2,2,1,398,1
0.248185482927,0.169781832383,0.317664179559,1.30295836038,0.476,0.45,3,3,1,399,1
0.363945669607,1.30962028898,0.340613559654,0.186992294767,0.451,0.45,1,1,1,400,1
0.275149311795,0.0535673218522,0.497708609611,1.29726521097,0.475,0.45,3,3,1,401,1
0.211377787544,0.0764218047647,1.06382708181,0.341845683156,0.397,0.45,2,2,2,402,1
1.05101455182,0.0337532414528,0.202872049076,0.300884580498,0.428,0.45,1,0,-1,403,1
1.16104988041,0.0405111875372,0.137209667983,0.214966191128,0.539,0.45,0,0,1,404,1
0.114574878368,1.09871624369,0.231547630162,0.125607436827,0.46,0.45,1,1,1,405,1
0.187300974165,0.0702106886505,1.39027115508,0.317999658469,0.384,0.45,2,2,2,406,1
1.25644465732,0.266891230803,0.328743100425,0.263342971232,0.416,0.45,0,0,2,407,1
0.333571333775,0.0618900437516,0.365298494642,1.71627751825,0.452,0.45,3,3,1,408,1
1.24263431416,0.151591690992,0.342496936235,0.311682180719,0.492,0.45,0,0,1,409,1
0.2254576615,0.0671187824658,0.280758413057,1.39694423262,0.446,0.45,3,3,2,410,1
0.213691194041,1.32326162621,0.331587486979,0.269237250397,0.477,0.45,1,1,1,411,1
0.102174870329,0.0616586208494,1.15581719995,0.419017181344,0.403,0.45,2,2,2,412,1
0.405137369454,1.52909955911,0.20603459253,0.236177109198,0.527,0.45,1,1,1,413,1
0.136135894579,0.0582680651264,0.167206291164,1.37061119426,0.528,0.45,3,3,1,414,1
0.125936929146,1.00424030036,0.279720909742,0.158158173693,0.532,0.45,2,1,-1,415,1
1.16771860719,0.0562550906034,0.0901161383804,0.230842381127,0.531,0.45,0,0,1,416,1
0.118077719683,0.0530891020401,1.15756722368,0.516382324891,0.427,0.45,2,2,2,417,1
0.175649897255,0.0617473654648,0.283513531874,1.3615176126,0.54,0.45,3,3,1,418,1
1.04641212444,0.0623860304019,0.249455437228,0.193384046296,0.466,0.45,0,0,1,419,1
0.0967454912894,1.03814114541,0.217168741499,0.209035137576,0.392,0.45,1,1,2,420,1
1.20761746332,0.0470018162686,0.159388979661,0.199336455257,0.485,0.45,0,0,1,421,1
0.100636214202,0.0468886247472,1.17326599618,0.114202913096,0.416,0.45,2,2,2,422,1
0.103001090812,0.0468766264729,0.100686187343,1.05697768209,0.418,0.45,3,3,2,423,1
0.231527004809,1.05578752687,0.0598689019344,0.07992856984,0.656,0.45,1,1,1,424,1
0.0936181548365,0.0558324136604,0.0609158142782,1.05136610245,0.531,0.45,3,3,1,425,1
0.0921330562363,0.0547677556101,1.32706914469,0.0806013901452,0.511,0.45,2,2,1,426,1
0.100194229211,1.4012014043,0.0628473288613,0.0718357959624,0.38,0.45,1,1,2,427,1
1.02657284833,0.0399307738925,0.0625347175908,0.0640386455466,0.198,0.45,0,0,2,428,1
0.0923395586519,0.0455644693338,0.0625015894261,1.27050041714,0.508,0.45,3,3,1,429,1
1.34585687933,0.04283708597,0.0929934170433,0.0925578550682,0.494,0.45,0,0,1,430,1
0.127009686709,1.29879527926,0.121733335911,0.0987943753942,0.553,0.45,1,1,1,431,1
0.115016568768,0.0550970146819,1.33788425906,0.0840245174498,0.393,0.45,2,2,2,432,1
1.46335942492,0.0494050140172,0.0626514468581,0.101230084226,0.532,0.45,0,0,1,433,1
0.286647416215,0.0964856335591,0.161968786442,0.251975666155,0.7,0.45,0,-1,0,435,2
1.07750698,0.275377757751,0.225356994912,0.287750000333,0.294,0.45,3,0,-1,435,2
0.140956982713,1.1469290465,0.431987855709,0.162678895502,0.387,0.45,1,1,2,436,2
0.118734791591,0.075247902549,1.25746479693,0.239107362253,0.379,0.45,2,2,2,437,2
0.332330879797,0.165574464176,0.312165022043,1.36986095777,0.338,0.45,3,3,2,438,2
0.159557228912,1.07759407676,0.295244246881,0.198733762824,0.414,0.45,2,1,-1,439,2
0.130234428691,1.70112281668,0.198823844538,0.114454168426,0.457,0.45,1,1,1,440,2
1.08135138649,0.174697198997,0.130790592807,0.28791958491,0.329,0.45,0,0,2,441,2
0.0940152505622,1.39223771919,0.108850215745,0.123095357367,0.369,0.45,1,1,2,442,2
0.105841003332,0.0656353812332,1.05142525706,0.173572849915,0.362,0.45,3,2,-1,443,2
1.26272185792,0.107318226542,0.0743052688235,0.0816994647088,0.54,0.45,0,0,1,444,2
0.113505049943,0.0579734007754,1.0083107844,0.164856690167,0.487,0.45,2,2,1,445,2
1.20171658381,0.0478232501845,0.0551376755484,0.101441520269,0.579,0.45,0,0,1,446,2
0.0823962349578,0.0551629057082,0.0904255221023,1.49403923665,0.51,0.45,3,3,1,447,2
0.0944465717767,0.0991636250826,1.08907186887,0.113259892566,0.496,0.45,2,2,1,448,2
0.109789408519,1.02585119816,0.158536591075,0.107340726402,0.343,0.45,1,1,2,449,2
0.111640146985,0.0474988453129,1.18480484108,0.0684724812483,0.491,0.45,2,2,1,450,2
0.0923278080249,0.0469561623529,0.217346647322,1.12452535628,0.422,0.45,3,3,2,451,2
1.40202384724,0.238248731625,0.114051904437,0.114745413302,0.522,0.45,1,0,-1,452,2
1.39941893109,0.0553028834641,0.0981816958426,0.105668821022,0.697,0.45,0,0,1,453,2
0.131946471247,1.19615903192,0.0953137620993,0.0527246420318,0.514,0.45,1,1,1,454,2
0.0964807902844,0.046938103436,0.143205824671,1.17753122041,0.528,0.45,3,3,1,455,2
1.1133534261,0.0468810774537,0.0724551022724,0.0718218578946,0.455,0.45,0,0,1,456,2
0.0573758553066,0.0468759257749,1.06731561213,0.0768971872164,0.375,0.45,2,2,2,457,2
1.91511181753,0.0468750995149,0.078422859431,0.0792857867233,0.415,0.45,0,0,2,458,2
0.0724606165235,0.0468750127393,1.36986144968,0.0761311143344,0.397,0.45,2,2,2,459,2
0.284263404732,0.11052674573,0.214510066975,1.14885654349,0.491,0.45,3,3,1,460,2
1.38127477629,0.438663737664,0.336227972294,0.32895470153,0.455,0.45,1,0,-1,461,2
0.117589797673,0.0757348679371,0.256557842118,1.07573901505,0.494,0.45,3,3,1,462,2
0.111420496288,0.0479655852581,1.38332679828,0.186242599249,0.434,0.45,2,2,2,463,2
0.15599916656,1.15347958845,0.314793156487,0.123709177447,0.449,0.45,1,1,2,464,2
1.11041739661,0.0399865541404,0.104018669173,0.0899022719719,0.296,0.45,0,0,2,465,2
0.139508127549,0.047312118208,0.0741687310584,1.13534764691,0.478,0.45,3,3,1,466,2
1.08100571857,0.0469248458935,0.0886498140718,0.0671691646203,0.497,0.45,0,0,1,467,2
0.0962532473883,1.17936385383,0.0717592702948,0.0807623302716,0.541,0.45,1,1,1,468,2
0.100223984549,0.0325030677206,1.35191552458,0.0761144487924,0.355,0.45,2,2,2,469,2
1.54385523658,0.0389048291069,0.1021603644,0.173150655085,0.529,0.45,0,0,1,470,2
0.0802317416612,0.0500429375997,1.08204548356,0.0721005570692,0.425,0.45,1,2,-1,471,2
0.0455001647974,0.0540039259359,1.19950482085,0.0960861566163,0.353,0.45,2,2,2,472,2
0.0727434463459,0.0545920700789,0.435347032162,1.36286841977,0.306,0.45,3,3,2,473,2
0.796422061155,1.01418267452,0.458666804944,0.2476758654,0.426,0.45,1,1,2,474,2
0.0964204044951,0.0817076089639,1.07363153305,0.745435472599,0.471,0.45,3,2,-1,475,2
0.167710424738,0.0811605321896,1.19120315491,0.288411623346,0.532,0.45,2,2,1,476,2
1.10219124437,0.0499300516391,0.233210162234,0.27125973565,0.485,0.45,1,0,-1,477,2
1.30699452115,0.0899077480943,0.261516011331,0.258050338553,0.546,0.45,0,0,1,478,2
0.130406491481,0.0977460676583,0.203058657041,1.08096317463,0.467,0.45,3,3,1,479,2
1.36625352685,0.0645010350143,0.235372819481,0.257885869274,0.469,0.45,0,0,1,480,2
0.0838912847102,0.0422369492987,1.46403971366,0.377365650442,0.365,0.45,2,2,2,481,2
1.37445271591,0.123439959305,0.13057238646,0.194422554367,0.561,0.45,0,0,1,482,2
0.110612337627,0.0539509673138,1.43471857339,0.374329081738,0.487,0.45,2,2,1,483,2
0.0734559374299,1.2452201277,0.702038591937,0.0465094285982,0.488,0.45,1,1,1,484,2
0.0900022697263,0.0314263466008,0.157041283145,1.56910109577,0.486,0.45,3,3,1,485,2
0.12223344943,1.10859096701,0.399341830771,0.14149919358,0.65,0.45,1,1,1,486,2
0.0668021773955,0.0568892869261,1.51306364175,0.632848892402,0.595,0.45,2,2,1,487,2
0.0640542467,0.0546757266597,0.140905161298,1.60047379844,0.511,0.45,3,3,1,488,2
0.0643119751629,0.0540355495271,1.1585215703,0.0470668700652,0.459,0.45,2,2,1,489,2
0.0718615248618,1.20181276972,0.0556343947913,0.0404820626874,0.326,0.45,0,1,-1,490,2
0.054997645116,0.039499807736,1.3626047373,0.0416094845584,0.406,0.45,3,2,-1,491,2
1.46587189827,0.0390968079635,0.0498353042962,0.0396232162644,0.509,0.45,0,0,1,492,2
0.0602834034993,1.09075780571,0.0607571841047,0.100579037894,0.455,0.45,1,1,1,493,2
1.57210334138,0.0454428352119,0.0686778079419,0.0197226481804,0.547,0.45,0,0,1,494,2
0.0605538759818,0.0519857521816,0.132533051279,1.24057873813,0.604,0.45,3,3,1,495,2
0.0591509410762,0.0542359118456,1.14138668972,0.0576392044628,0.496,0.45,1,2,-1,496,2
0.0725572120418,0.0470243614848,1.448521259,0.053278434664,0.608,0.45,2,2,1,497,2
0.448179240878,1.20973609779,0.0558224849784,0.0208821966239,0.559,0.45,1,1,1,498,2
0.0874297697822,0.0541535039406,0.0619125419309,1.35595826526,0.503,0.45,3,3,1,499,2
0.0835231622025,1.0885886094,0.171325995484,0.120447256739,0.416,0.45,2,1,-1,500,2
0.339129353496,1.02423251635,0.305841834424,0.306241288035,0.518,0.45,0,1,-1,501,2
0.123705975404,1.07247835745,0.299536430338,0.299738097882,0.468,0.45,1,1,1,502,2
1.01594378138,0.125357556466,0.152421473568,0.263671531557,0.438,0.45,0,0,2,503,2
0.0947319048217,0.065418043415,1.23137309283,0.581112956955,0.36,0.45,2,2,2,504,2
0.408356147222,0.25892265204,1.06456027746,0.858787851145,0.34,0.45,3,2,-1,505,2
1.27502743426,0.244744867232,0.294887683608,0.32641544004,0.488,0.45,0,0,1,506,2
0.153599047001,0.0613023132736,0.153624768497,1.21418797224,0.463,0.45,3,3,1,507,2
0.165372916085,1.30191711129,0.500224151053,0.14617247794,0.544,0.45,1,1,1,508,2
0.120731651364,0.0434099701846,1.10395941671,0.395760516952,0.414,0.45,2,2,2,509,2
0.120953436766,0.0361250282284,0.0826107956091,1.3378904077,0.387,0.45,3,3,2,510,2
0.247892138936,0.126185308854,1.12440168125,0.234890020792,0.48,0.45,2,2,1,511,2
0.120926476751,1.21196965474,0.14096073521,0.139772722955,0.462,0.45,1,1,1,512,2
0.38002190459,0.0635985742686,0.11164286874,1.22506485706,0.493,0.45,3,3,1,513,2
1.08623314264,0.0476375156783,0.164847047364,0.234078481206,0.487,0.45,0,0,1,514,2
0.0683987299783,1.20544678424,0.550683570275,0.0832284211035,0.489,0.45,1,1,1,515,2
1.67216714234,0.0315212596569,0.100355166206,0.102193036814,0.542,0.45,0,0,1,516,2
0.102048191787,0.0922409676414,1.31407879162,0.0740513955039,0.467,0.45,2,2,1,517,2
1.47235076067,0.0349763460219,0.0782181146878,0.131024644857,0.551,0.45,0,0,1,518,2
0.0699806429936,0.0320375853233,1.03595711265,0.0843478568262,0.365,0.45,2,2,2,519,2
0.090359422843,0.0313440013206,0.0739703302787,1.29719794211,0.37,0.45,3,3,2,520,2
0.0790886314602,0.0312668595619,1.04071177902,0.0785663366432,0.24,0.45,1,2,-1,521,2
0.0802899353705,0.0312512349072,1.2412824879,0.078141641492,0.407,0.45,2,2,2,522,2
0.0847240298137,1.15112879806,0.295430560792,0.0607353007702,0.585,0.45,1,1,1,523,2
0.0760748094069,0.0324059437005,0.0744304258226,1.06040499326,0.514,0.45,3,3,1,524,2
0.0948755938576,0.421284839887,1.17807790826,0.0292426884586,0.492,0.45,2,2,1,525,2
0.0879311853254,1.13799311361,0.0787880172466,0.0213994221807,0.385,0.45,0,1,-1,526,2
0.0850300722867,0.0240224570482,0.0781558646198,1.22994231643,0.52,0.45,3,3,1,527,2
1.1636788003,0.0440618643384,0.114593133003,0.0649865906912,0.519,0.45,0,0,1,528,2
0.104128028684,1.23114446216,0.0716832368702,0.0499089543096,0.496,0.45,1,1,1,529,2
1.51101873465,0.0336060766761,0.0633836564265,0.0471750647436,0.551,0.45,0,0,1,530,2
0.0987124272661,0.038372329498,1.1038576602,0.0433082618054,0.416,0.45,2,2,2,531,2
0.129427689282,1.16197905829,0.0769025574891,0.0279024630965,0.699,0.45,1,1,1,532,2
0.100471663541,0.0733381164817,0.0638217177392,1.45193976835,0.546,0.45,3,3,1,533,2
0.0946456304069,1.1225587103,0.145591600508,0.267831577291,0.501,0.45,1,1,1,534,2
0.101694299178,0.0867166206464,1.16032521892,0.336368435339,0.51,0.45,2,2,1,535,2
0.0953515585815,0.056760913582,0.390530609656,1.3258595624,0.463,0.45,3,3,1,536,2
1.48481944976,0.054862986411,0.0727101658494,0.0392563706179,0.576,0.45,0,0,1,537,2
0.0658862509602,1.24355651712,0.0612664130411,0.0475316864617,0.526,0.45,1,1,1,538,2
1.04853507238,0.0502366315443,0.0948929401321,0.0377621980872,0.613,0.45,0,0,1,539,2
0.0977577570582,0.0539694518511,0.0519930195017,1.12662360327,0.483,0.45,3,3,1,540,2
0.0918280404386,0.054567863908,1.24043831132,0.0707649435129,0.376,0.45,2,2,2,541,2
1.44620358714,0.100290184833,0.0548216219406,0.0173316057678,0.545,0.45,0,0,1,542,2
0.12036533673,1.1700080565,0.054708502226,0.0157322171131,0.421,0.45,1,1,2,543,2
0.12778523728,0.0317497070192,0.0546892260897,1.95622731878,0.549,0.45,3,3,1,544,2
0.124549604859,0.0385316374231,1.11068163524,0.0306227750333,0.395,0.45,2,2,2,545,2
0.126491994943,0.0359359027351,0.0783584480766,1.47656281082,0.519,0.45,3,3,1,546,2
0.122910139251,1.05003714737,0.0659281818483,0.0161441806808,0.618,0.45,1,1,1,547,2
0.0841591236141,0.0637423877203,1.21942741442,0.0261189504397,0.544,0.45,2,2,1,548,2
0.0783967712108,1.26020377349,0.063776804288,0.0269696244204,0.56,0.45,1,1,1,549,2
1.20673187001,0.047866069792,0.0626861606023,0.0189849510552,0.457,0.45,0,0,1,550,2
0.122338671975,0.0469533878928,0.0671894474303,1.24904485446,0.487,0.45,3,3,1,551,2
1.18398838237,0.0468841786921,0.0608179635477,0.0547790578352,0.497,0.45,0,0,1,552,2
0.11573720194,0.04687638266,1.05028670491,0.050425815826,0.425,0.45,2,2,2,553,2
1.23279947247,0.0705930839573,0.0625472593048,0.0530032300195,0.552,0.45,0,0,1,554,2
0.120234405748,1.13234113002,0.0677424637586,0.0256898597785,0.476,0.45,1,1,1,555,2
0.0896650730545,0.0366367251337,0.0799794368956,1.5139131087,0.591,0.45,3,3,1,556,2
0.0834756797734,0.0387004849185,1.26153633168,0.0138720410712,0.465,0.45,2,2,1,557,2
0.102286074812,1.26198260458,0.0473736263494,0.0352737773699,0.427,0.45,1,1,2,558,2
1.22521223086,0.0476623927307,0.0469455468279,0.0312978562369,0.273,0.45,2,0,-1,559,2
0.107175591382,0.0532409924913,0.0726903691661,1.54835211021,0.534,0.45,3,3,1,560,2
1.2124092026,0.0544996521428,0.0487429753127,0.0390999774667,0.511,0.45,0,0,1,561,2
0.132953983208,0.0510765471091,0.035876318948,1.03444102698,0.519,0.45,3,3,1,562,2
0.127968914697,1.09321071841,0.0597591013191,0.0156404697873,0.638,0.45,1,1,1,563,2
1.04278357638,0.0397874562143,0.0551282665877,0.0156265476696,0.566,0.45,0,0,1,564,2
0.125674323595,0.074590829018,0.134007662477,0.0224413485383,0.7,0.45,2,-1,0,566,2
1.49427420547,0.0355023177574,0.0731877053161,0.0265814679859,0.581,0.45,0,0,1,566,2
0.145997950211,0.036112731115,1.35751679512,0.0303797580239,0.43,0.45,2,2,2,567,2
1.17958520005,0.0386631928598,0.0470582650029,0.0311303164703,0.388,0.45,1,0,-1,568,2
0.113264043013,0.0417107622303,0.223802120907,1.19130830833,0.56,0.45,3,3,1,569,2
0.127570749366,1.03919345864,0.038070938991,-0.00773837327168,0.682,0.45,1,1,1,570,2
0.11850923627,0.0565400396447,1.11938662092,-0.00780028331671,0.48,0.45,2,2,1,571,2
0.116408671609,0.0426252673502,0.0396377164166,1.31155754411,0.402,0.45,3,3,2,572,2
0.109179912018,0.05287885732,1.28238357855,0.0706200186655,0.462,0.45,2,2,1,573,2
1.94277064725,0.0698844663549,0.0313630023144,0.0383965830982,0.58,0.45,0,0,1,574,2
0.126952490638,1.50703784776,0.0312655862473,0.0409201136756,0.479,0.45,1,1,1,575,2
1.09684589126,0.0314280789283,0.0312516812032,0.0503149523742,0.516,0.45,0,0,1,576,2
0.134326040666,0.0331525061409,0.0604430488808,1.27049211954,0.521,0.45,3,3,1,577,2
1.20531520201,0.0314715602477,0.0412961698699,0.0312607980273,0.528,0.45,0,0,1,578,2
0.0911317632429,0.031272338019,0.0419820234855,1.55765725634,0.589,0.45,3,3,1,579,2
0.0895293475549,0.0312543214503,1.04363263378,0.0529815188046,0.434,0.45,2,2,2,580,2
0.0951312503708,1.25310277617,0.0474498661979,0.0488837189495,0.417,0.45,1,1,2,581,2
0.0933312086471,0.0471321209001,1.32097528089,0.0413987061761,0.453,0.45,2,2,1,582,2
0.0955659408235,0.046905548312,0.0490236830829,1.34778675458,0.38,0.45,3,3,2,583,2
0.101791525213,1.30337001628,0.0515859622775,0.0504615350523,0.507,0.45,1,1,1,584,2
0.0868548516015,0.0392038539718,0.0424314354148,1.24790933805,0.55,0.45,3,3,1,585,2
1.39736234346,0.0351615737483,0.0397164113349,0.0254686949046,0.442,0.45,0,0,2,586,2
0.0425171915721,1.10358755921,0.0408512058685,0.0157481920696,0.577,0.45,1,1,1,587,2
1.54682296489,0.039567214214,0.0430699544169,0.0214784097077,0.585,0.45,0,0,1,588,2
0.117837452923,0.035262821098,1.00565361446,0.032399696713,0.421,0.45,2,2,2,589,2
1.12894671918,0.038761170674,0.0397453785519,0.0325473925994,0.56,0.45,0,0,1,590,2
0.134859823428,0.0390122465222,1.22671504034,0.038021767356,0.454,0.45,2,2,1,591,2
1.18056636698,0.0390560292585,0.0475358486447,0.0211895636692,0.434,0.45,1,0,-1,592,2
0.0563255590049,0.0390618860889,0.0398926771797,1.11766231842,0.515,0.45,3,3,1,593,2
0.0570472862435,1.03871177885,0.0372246712505,0.0206665364886,0.568,0.45,1,1,1,594,2
0.0579436574643,0.039422712005,0.0462143813415,0.0392766513502,0.7,0.45,2,-1,0,596,2
0.0673637280732,0.0392093853387,1.08124558256,0.0515218870861,0.273,0.45,3,2,-1,596,2
1.54860202886,0.0562474189115,0.0452203494354,0.0270439331102,0.55,0.45,0,0,1,597,2
0.0896614723879,1.72786397926,0.0466692187923,0.0286138520013,0.525,0.45,1,1,1,598,2
1.16093792182,0.0313169741251,0.0496023286039,0.0359276735904,0.578,0.45,0,0,1,599,2
0.106498301674,0.0329014562891,0.0442134274449,1.16018775595,0.52,0.45,3,3,1,600,2
0.109802371291,0.0315413434159,1.49341340383,-0.00775734413691,0.39,0.45,2,2,2,601,2
1.86669003398,0.0350505586656,0.0508146577612,0.0129587760638,0.645,0.45,0,0,1,602,2
0.0955032337167,0.0320929411052,1.07529344461,0.0128706773918,0.434,0.45,2,2,2,603,2
1.14245055341,0.0331538407021,0.0250731419752,-0.0123603875833,0.412,0.45,1,0,-1,604,2
0.0680065839083,0.0415053618684,0.0391776576042,2.68733206177,0.53,0.45,3,3,1,605,2
0.0800842003217,0.045378668999,1.57259762777,-0.0430342931722,0.461,0.45,2,2,1,606,2
0.0625171367605,0.048423594009,0.0148523803487,1.31086597195,0.54,0.45,3,3,1,607,2
0.0691764636276,1.39824494962,0.103290069745,0.0390667733024,0.679,0.45,1,1,1,608,2
0.0832810977377,0.0331484329282,1.47510713847,0.0341251877536,0.466,0.45,2,2,1,609,2
1.31762657011,0.0322074409565,0.0479367086197,0.0739192362554,0.469,0.45,0,0,1,610,2
0.0791027239528,1.48648968477,0.0594371936841,0.0374554027315,0.557,0.45,1,1,1,611,2
1.35767796106,0.0368151987628,0.0649235209819,0.0280136210762,0.585,0.45,0,0,1,612,2
0.0827450390486,0.0361387023134,0.0560823271301,1.68961000956,0.51,0.45,3,3,1,613,2
1.41543542288,0.0387106247345,0.0411618350883,-0.00780198310729,0.511,0.45,0,0,1,614,2
0.114168776967,0.0436005232286,0.0282702138513,1.35170241192,0.435,0.45,3,3,2,615,2
0.10802291295,0.0463864970026,1.5862367473,0.0548193606278,0.362,0.45,2,2,2,616,2
0.112689218734,1.01739594057,0.0344822746428,0.0503434714819,0.368,0.45,1,1,2,617,2
0.111165191755,0.0250815113134,1.20514104604,0.802528410029,0.495,0.45,2,2,1,618,2
0.0996951567589,0.0238665840344,-0.0270332181214,1.31975797165,0.504,0.45,3,3,1,619,2
0.0946095215905,1.02715941206,0.0462895813938,0.0810141464169,0.508,0.45,1,1,1,620,2
0.0862447543136,0.0276169504882,0.0397539224687,1.5428155168,0.535,0.45,3,3,1,621,2
1.04958134895,0.0305120823819,0.0391682482869,0.066166403522,0.457,0.45,0,0,1,622,2
0.0816477650091,1.55076784481,0.0361043525401,0.0442419765876,0.38,0.45,2,1,-1,623,2
0.0645193688751,1.25976748606,0.0472423305129,0.0455812273456,0.454,0.45,0,1,-1,624,2
0.117954983167,1.5189191617,0.0469189112432,0.0399121621717,0.458,0.45,1,1,1,625,2
1.20707126664,0.0207084873444,0.0429984735894,0.0452466776679,0.541,0.45,0,0,1,626,2
0.0561919122838,0.0263224670326,1.23065559806,0.0377910727386,0.36,0.45,2,2,2,627,2
0.0717023451265,1.36943748551,0.0394245476268,0.0352269466849,0.582,0.45,1,1,1,628,2
0.0813623012642,0.0296289174037,0.101538132695,1.38922170167,0.507,0.45,3,3,1,629,2
0.0776995184136,0.031102458973,1.67587064129,-0.00780560380049,0.4,0.45,2,2,2,630,2
0.0658217745405,0.0312356695027,0.057967274075,1.46532486319,0.467,0.45,3,3,1,631,2
1.31161033941,0.0312482797299,0.0438336526882,0.0468765824589,0.47,0.45,1,0,-1,632,2
1.05563614924,0.0342013690922,0.046040918169,0.0170410885805,0.581,0.45,0,0,1,633,2
0.112440213265,2.11369991761,0.0467256359667,0.0299694377757,0.451,0.45,1,1,1,634,2
0.076818670426,0.0547364631887,1.11585386785,0.0418844208563,0.346,0.45,2,2,2,635,2
1.5713679336,0.0647861473253,0.0312800296989,0.0613111583168,0.517,0.45,0,0,1,636,2
0.126467932972,0.0418845242258,0.000475941921202,1.92470849617,0.47,0.45,3,3,1,637,2
1.46721871715,0.0393272006017,0.0456807262875,0.0421928240389,0.553,0.45,0,0,1,638,2
0.099627488093,0.0380626050129,1.43515688466,0.0597802117339,0.669,0.45,2,2,1,639,2
0.10503924824,0.035932208648,-0.0211177089093,1.15258247596,0.513,0.45,3,3,1,640,2
0.103314470129,1.00214220288,0.0329362682211,-0.0199547350295,0.466,0.45,1,1,1,641,2
0.0688900402518,0.0136091104849,1.63116581265,-0.146800317491,0.358,0.45,2,2,2,642,2
0.087837499549,1.50328183325,0.0547638190435,0.00763836493123,0.558,0.45,1,1,1,643,2
0.0557951753815,0.0238407326361,0.0506880977374,1.61111911045,0.542,0.45,3,3,1,644,2
0.0447521977824,0.0288718187404,1.79714173718,-0.0110317987555,0.448,0.45,2,2,2,645,2
2.79868769273,0.0244177102954,0.0339417137876,-0.0725258683764,0.483,0.45,0,0,1,646,2
0.0886552703173,1.93601518366,0.0440749500183,0.0132395152929,0.39,0.45,1,1,2,647,2
1.559580121,0.0258507910026,0.0550872879153,0.0510053801857,0.458,0.45,0,0,1,648,2
0.0804747540004,0.023532507368,0.0910624620575,0.137856259382,0.7,0.45,3,-1,0,650,2
0.0875168774046,0.0234869809735,0.0662244139203,1.50882664021,0.227,0.45,0,3,-1,650,2
0.0921103576954,1.24810777215,0.0701488826094,0.0558781885757,0.664,0.45,1,1,1,651,3
0.0975414750197,0.0315021102068,1.41283683556,0.056424466171,0.402,0.45,2,2,2,652,3
0.0975501797477,0.0312548997453,0.0469229863428,1.10321450804,0.221,0.45,0,3,-1,653,3
0.0843560496559,0.0312502469586,0.0468754822966,1.35835407433,0.467,0.45,3,3,1,654,3
1.69201866649,0.0312500300693,0.0534346550039,0.0546951362618,0.465,0.45,0,0,1,655,3
0.109091993642,1.08952431954,0.0479898787392,0.055894365794,0.335,0.45,2,1,-1,656,3
0.0869558210816,0.0468637364414,1.18175516602,0.0746679328089,0.443,0.45,3,2,-1,657,3
0.0871951886217,1.33324629935,0.0458143862816,0.0753209459637,0.527,0.45,1,1,1,658,3
0.0891434867087,0.0333432480332,0.0314897911399,1.12678755739,0.474,0.45,3,3,1,659,3
0.0797528095738,0.0385409894896,1.49830731195,0.0705891791656,0.375,0.45,2,2,2,660,3
0.0849632453724,1.27413028168,0.0235575687626,0.0620328879014,0.357,0.45,1,1,2,661,3
1.56462135085,0.0546077100744,0.0234446808253,0.0554030848341,0.456,0.45,0,0,1,662,3
0.0766117213396,1.21581491035,0.0234382757482,0.0609927302108,0.493,0.45,1,1,1,663,3
0.384079258564,0.620167158781,1.05110663223,0.832185989038,0.497,0.45,2,2,1,664,3
0.282297880611,0.123402909774,1.2450679368,0.472220113507,0.418,0.45,3,2,-1,665,3
1.01917647863,0.324125999331,0.41146457944,0.343274893356,0.641,0.45,0,0,1,666,3
0.137977106581,0.163602068536,1.24560535969,0.624342112802,0.479,0.45,2,2,1,667,3
1.34456451079,0.279218921365,0.278807972028,0.311577249875,0.536,0.45,0,0,1,668,3
0.44401825736,0.0605198308235,0.510704058251,1.13548885778,0.405,0.45,3,3,2,669,3
1.1633318205,0.500666034262,0.175500838935,0.209302742636,0.524,0.45,1,0,-1,670,3
1.12545614151,0.189363872536,0.184217943115,0.238235533434,0.64,0.45,0,0,1,671,3
0.148694244858,1.10051845636,0.179514610226,0.226828950161,0.514,0.45,1,1,1,672,3
0.368016826188,0.0764878421941,0.11042376598,1.44187603814,0.571,0.45,3,3,1,673,3
0.12798492503,0.123920307645,1.24185107726,0.145755973979,0.493,0.45,2,2,1,674,3
0.106917832214,1.2058191634,0.181074161727,0.111358880745,0.416,0.45,1,1,2,675,3
0.183955537001,0.0324915691525,0.0674676276386,1.0269631881,0.446,0.45,3,3,2,676,3
1.125598473,0.0313606587307,0.057641286382,0.0717072049937,0.423,0.45,2,0,-1,677,3
1.54171192833,0.0312586015565,0.0629190768515,0.0657669151321,0.568,0.45,0,0,1,678,3
0.0932421008443,0.0655508200666,1.34987578902,0.0734230934795,0.441,0.45,2,2,2,679,3
0.115414789217,0.0596921665141,0.13660663798,1.05358956887,0.504,0.45,3,3,1,680,3
1.04704180911,0.0480114024952,0.0584227281626,0.0302829550896,0.571,0.45,0,0,1,681,3
0.0621922684492,0.044021080791,0.0509099158076,1.29970144672,0.527,0.45,3,3,1,682,3
0.0748508813635,1.64203846664,0.0469972051096,0.03906195544,0.7,0.45,1,-1,0,684,3
0.0748508813635,1.64203846664,0.0469972051096,0.03906195544,0.0010000000003,0.45,0,1,-1,684,3
0.0942663603216,1.33837897069,0.0392083396662,0.0476769338017,0.601,0.45,1,1,1,685,3
0.0751783129096,0.0706103505008,1.72228097042,0.0434256295195,0.447,0.45,2,2,2,686,3
0.0720173389442,1.13520638084,0.0517713265244,0.0762264757583,0.526,0.45,1,1,1,687,3
0.0700832511909,0.0548246420712,1.08053580049,0.0455239235395,0.503,0.45,2,2,1,688,3
0.067321653696,0.0616937746142,0.0312073749313,2.04181338241,0.455,0.45,3,3,1,689,3
1.16080937146,0.0554639631091,0.0559266658529,0.0275696451969,0.455,0.45,0,0,1,690,3
0.0777407398144,0.0532688389191,0.044637971148,1.37882172907,0.563,0.45,3,3,1,691,3
0.0758243657044,0.0544107662912,1.10501184198,0.0474768882583,0.404,0.45,2,2,2,692,3
1.54376954762,0.0952162203659,0.0486590961124,0.0449013175345,0.539,0.45,0,0,1,693,3
0.083545149432,1.3748681964,0.0437875678322,0.0492473118218,0.433,0.45,1,1,2,694,3
0.0895772154283,0.0470399971923,0.045174143747,1.08253091967,0.466,0.45,3,3,1,695,3
0.0943859830605,0.0984359005787,0.0388711057055,0.0432861841032,0.7,0.45,1,-1,0,697,3
1.37854433608,0.0486675854951,0.041571771611,0.282399796303,0.676,0.45,0,0,1,697,3
0.0839732168538,0.0489246428468,1.74916566274,-0.0176941149706,0.549,0.45,2,2,1,698,3
0.157849416558,1.61335414461,0.0440333176591,0.0275487065434,0.505,0.45,1,1,1,699,3
1.25749184467,0.0548769998076,0.0322249384185,0.017807116049,0.398,0.45,0,0,2,700,3
0.0545866003841,0.0460232132261,0.0062281206499,1.56937687154,0.408,0.45,3,3,2,701,3
0.0781307130192,0.0605157313007,1.15094805287,0.0516740569109,0.36,0.45,2,2,2,702,3
1.08018760672,0.2476168718,0.233370937557,0.345161479836,0.474,0.45,0,0,1,703,3
0.0983115430835,0.0760071779886,1.61903232674,0.482338754004,0.395,0.45,2,2,2,704,3
0.388812890162,0.144571964625,0.26065725331,1.33270552101,0.483,0.45,3,3,1,705,3
1.05821509174,0.284193728615,0.306311290309,0.177123580684,0.537,0.45,0,0,1,706,3
0.637608959503,1.40327740709,0.289256232959,0.173547463186,0.599,0.45,1,1,1,707,3
0.490339402575,0.0764303945102,0.2781265051,1.72140826402,0.467,0.45,3,3,1,708,3
1.4114701155,0.216713600339,0.275144925339,0.416643828653,0.42,0.45,1,0,-1,709,3
0.134219859847,0.107368669441,1.44705944076,0.153354528907,0.504,0.45,2,2,1,710,3
1.27762067411,0.0787081523546,0.101679954828,0.24533677447,0.45,0.45,1,0,-1,711,3
0.0740433995109,0.0719425342619,0.0593056678691,1.12929802043,0.475,0.45,3,3,1,712,3
0.061858088402,0.0659527174358,1.11453183426,0.0547138042105,0.501,0.45,2,2,1,713,3
1.37282854214,0.116149606814,0.0565682437066,0.0526747006659,0.611,0.45,0,0,1,714,3
0.111992035236,0.0463337797324,0.0429529054984,1.2162019071,0.506,0.45,3,3,1,715,3
1.89008695092,0.0399588584113,0.0731625218392,0.0546551678267,0.483,0.45,0,0,1,716,3
0.0753293519342,0.0517775560142,1.54005721594,0.0487073564316,0.588,0.45,2,2,1,717,3
0.0720262420792,1.50554407417,0.0825405085917,0.0584289890429,0.428,0.45,1,1,2,718,3
0.0867906077115,0.349697247201,1.24374019958,0.0479285525234,0.486,0.45,2,2,1,719,3
0.0786186340803,0.0426395837425,0.0316092060272,1.49994724224,0.52,0.45,3,3,1,720,3
0.0773466896299,1.39794717802,0.0434375015778,0.0376780497204,0.548,0.45,1,1,1,721,3
1.2994272071,0.0449845986696,0.0606846062655,0.146369780585,0.471,0.45,0,0,1,722,3
0.116958263314,1.58171396121,0.0380909809722,0.058319922295,0.58,0.45,1,1,1,723,3
0.108139307431,0.047198935486,0.0321013784276,1.86330567025,0.555,0.45,3,3,1,724,3
0.0969629043289,0.0469181765598,1.52306328266,-0.00778091943052,0.423,0.45,2,2,2,725,3
1.8744397475,0.0488537293643,0.0456276594829,-0.00815501313289,0.536,0.45,0,0,1,726,3
0.0728279845144,0.0452948922376,0.0423700931976,1.59631746689,0.538,0.45,3,3,1,727,3
1.49573129194,0.0398754657718,0.0500299638761,2.96921087708e-05,0.494,0.45,0,0,1,728,3
0.0729733408544,0.0472379758339,1.08465141173,0.00187451423957,0.527,0.45,2,2,1,729,3
0.0888906828308,1.07150187666,0.0469894223745,0.00883845802677,0.393,0.45,1,1,2,730,3
0.0893331544288,0.0446982657174,1.50205827772,0.00589550058875,0.45,0.45,2,2,1,731,3
0.0858923125592,0.0469184917329,0.0312940932511,1.32804606975,0.348,0.45,3,3,2,732,3
1.14684700938,0.0468809917867,0.0312520521346,-0.00779700100588,0.302,0.45,1,0,-1,733,3
1.19054018421,0.0468755552994,0.0312501853305,-0.000189050296562,0.391,0.45,0,0,2,734,3
0.130073974391,1.12368141686,0.0312500199807,-0.00139422393358,0.43,0.45,1,1,2,735,3
0.0978714127859,0.0625786511184,0.111879638621,1.45555551614,0.47,0.45,3,3,1,736,3
1.5757599364,0.0383752940229,0.0771945808408,0.100397867337,0.536,0.45,0,0,1,737,3
0.0681178448771,0.0498832634682,1.81905614627,0.0353127169179,0.411,0.45,2,2,2,738,3
1.7442720387,0.0542919847569,0.0307951553616,0.0399612086121,0.533,0.45,0,0,1,739,3
0.0583946269214,0.0514735513839,0.362576110611,1.48481855402,0.542,0.45,3,3,1,740,3
0.0641927024105,0.05431350024,1.28153854747,-0.00505425267779,0.551,0.45,2,2,1,741,3
0.0636189426025,1.18612429541,0.046480840764,0.00154523851229,0.395,0.45,1,1,2,742,3
1.94013486966,0.0570534896032,0.0429114527786,0.0337662050211,0.455,0.45,0,0,1,743,3
0.262916228065,1.31675506921,0.0498947408114,0.0249913326221,0.573,0.45,1,1,1,744,3
0.0784935638145,0.0531741949214,1.33088419868,-0.0144675451349,0.418,0.45,2,2,2,745,3
0.0660598246692,0.048206199636,0.0495436628497,1.0156682232,0.368,0.45,3,3,2,746,3
0.0610476844375,1.40586918304,0.0567124067535,0.00362800183332,0.57,0.45,1,1,1,747,3
1.50574927644,0.0391900898662,0.0543741596822,0.0325935140038,0.502,0.45,0,0,1,748,3
0.0976437213758,0.0488862935694,0.147370426187,1.18143041283,0.517,0.45,3,3,1,749,3
0.103872705705,0.0539399540885,1.83023254185,0.0213426019395,0.496,0.45,2,2,1,750,3
1.54915456465,0.061299717362,0.0422254971179,0.0101237307475,0.581,0.45,0,0,1,751,3
0.0968069746096,0.0424824840737,1.03525711427,0.0230761759348,0.452,0.45,2,2,1,752,3
0.11113975808,0.0424364296823,0.0303047420087,2.23292836441,0.436,0.45,3,3,2,753,3
1.07353964639,0.0418365527738,0.0495581593693,0.0267717323326,0.444,0.45,0,0,2,754,3
0.0771582556257,1.35157996164,0.0663440829296,0.0533213125182,0.483,0.45,1,1,1,755,3
0.0994419250998,0.0392078867232,1.33117306713,0.0331160925509,0.384,0.45,2,2,2,756,3
0.126938823179,1.21384111503,0.028083095286,0.0477731954248,0.567,0.45,1,1,1,757,3
0.0920211097299,0.0392282954379,0.0245764559362,1.92305266661,0.471,0.45,3,3,1,758,3
0.114063160323,1.31796015659,0.0338956137217,0.0429424139704,0.647,0.45,1,1,1,759,3
2.18416755116,0.0316351921227,0.0350857669852,-0.0162539890898,0.493,0.45,0,0,1,760,3
0.0544886850988,0.0393607681587,1.67085892653,0.0151177530252,0.397,0.45,2,2,2,761,3
0.0547753404096,0.0458334682487,0.0469085995,1.26370114975,0.352,0.45,3,3,2,762,3
1.16525249533,0.0467880299824,0.0428486928615,0.0330923067882,0.476,0.45,0,0,1,763,3
0.111880637393,0.0640960287913,0.0976899100379,1.27541596396,0.486,0.45,3,3,1,764,3
0.0961220608573,0.0520521417527,1.22592854415,0.0312531124281,0.413,0.45,2,2,2,765,3
1.21705926325,0.0544234458629,0.0391787512091,0.0258734196065,0.472,0.45,0,0,1,766,3
0.103557964291,1.35579756284,0.0212405814636,0.0717410449917,0.533,0.45,1,1,1,767,3
0.0923577319678,0.0629971267768,1.48681573179,0.0485703412143,0.436,0.45,2,2,2,768,3
0.0674053219557,1.59744287608,0.0612674339109,0.0357031217382,0.557,0.45,1,1,1,769,3
0.0685972788264,0.0240482293699,0.0293483453785,1.05770379315,0.486,0.45,3,3,1,770,3
0.0704881813703,1.08135144075,0.0610709700683,0.0284632756166,0.494,0.45,1,1,1,771,3
0.0857840406487,0.0278900704061,0.101362760197,2.86734695893,0.639,0.45,3,3,1,772,3
1.14203505497,0.165837745172,0.0585854299178,0.0606182636644,0.514,0.45,0,0,1,773,3
0.0423192336577,0.0582306369976,1.82216328535,0.0324478088382,0.519,0.45,2,2,1,774,3
1.90509073293,0.0551465089236,0.0441379066862,0.0278391619585,0.495,0.45,0,0,1,775,3
0.0272024371031,0.0435456549486,0.039482223089,2.40265108747,0.468,0.45,3,3,1,776,3
0.052309654357,0.0452410140376,1.44852460606,0.017827471558,0.362,0.45,2,2,2,777,3
0.0464085530432,0.0467680762574,0.0325066276655,1.891377946,0.565,0.45,3,3,1,778,3
0.054493969581,1.10376761272,0.0491012828376,-0.0387714124187,0.547,0.45,1,1,1,779,3
1.5489309305,0.0313552583905,0.040349579719,0.0237286394639,0.496,0.45,0,0,1,780,3
0.0860082566624,0.0533025926036,1.49549517378,-0.00800140061422,0.39,0.45,1,2,-1,781,3
0.102834388335,1.71748194567,0.0514522974831,0.0283695637084,0.452,0.45,2,1,-1,782,3
0.166495503166,1.76362889293,0.00274957473791,0.0537963093616,0.646,0.45,1,1,1,783,3
0.0768853945,0.019277498646,0.122782082084,0.0607118242519,0.7,0.45,3,-1,0,785,3
0.0763578077693,0.0188232848132,0.0932192240635,1.82169297617,0.0280000000003,0.45,0,3,-1,785,3
0.0872276041639,0.0240381187152,1.81803452795,0.0218642660766,0.47,0.45,2,2,1,786,3
0.0637889770868,1.00620972119,0.0468946798408,0.0325516835136,0.55,0.45,0,1,-1,787,3
0.122057092012,0.020441405183,0.0736678338147,2.59805831399,0.496,0.45,3,3,1,788,3
0.0997611205458,0.0230249372352,1.31506216474,0.00193081904776,0.412,0.45,2,2,2,789,3
0.139570827305,2.30185789011,-0.0197065927406,0.218438265501,0.496,0.45,1,1,1,790,3
1.47228467134,0.054758839571,0.0394603445397,0.0701764898668,0.367,0.45,0,0,2,791,3
0.131772142177,1.74828449036,0.0467730131118,0.0291206465462,0.43,0.45,1,1,2,792,3
0.080194580453,0.0391237127598,1.97833460506,0.0857245734058,0.391,0.45,2,2,2,793,3
0.0728830064135,0.0390674922304,0.0266390444127,1.95524326261,0.348,0.45,3,3,2,794,3
1.69965283448,0.0377414672056,0.0180454399973,0.13858874461,0.476,0.45,1,0,-1,795,3
0.0722913569228,0.0383474700106,0.030094597924,2.76631843707,0.572,0.45,3,3,1,796,3
1.01343020941,0.0335314467973,0.0408595600647,0.0484419394667,0.494,0.45,0,0,1,797,3
0.0997493229418,0.0422211762423,1.22930114906,-0.011877423932,0.332,0.45,2,2,2,798,3
0.0696992853048,0.0393034635363,0.0312575818902,1.16234018746,0.468,0.45,3,3,1,799,3
0.063566906233,0.0390886262904,1.13367023417,0.0468750708578,0.505,0.45,2,2,1,800,3
1.22006405146,0.0355163196569,0.0469153173349,0.0287366408126,0.422,0.45,0,0,2,801,3
0.0490913352432,1.57394104706,0.0397444760712,0.0401716993712,0.397,0.45,1,1,2,802,3
0.0603138605918,0.0235659431471,1.41398835098,0.0357840615536,0.356,0.45,2,2,2,803,3
0.0404815321614,1.54071244291,0.0511587616015,0.0534692791207,0.537,0.45,1,1,1,804,3
1.39905074776,0.0256047301112,0.0405204748484,0.0682246475025,0.436,0.45,0,0,2,805,3
0.0369596089463,0.0446942679885,0.0882922315273,1.68413354136,0.476,0.45,3,3,1,806,3
0.0619692715555,1.1780270382,0.0495823822465,0.00781222497415,0.57,0.45,1,1,1,807,3
0.0961600182662,0.0488726676173,0.108258719719,1.73120706673,0.5,0.45,3,3,1,808,3
0.0390048024389,0.044169609789,1.54813726501,0.0367842140487,0.377,0.45,2,2,2,809,3
1.30799923011,0.0649721078952,0.0120352137211,0.0422785803138,0.358,0.45,0,0,2,810,3
0.0552704223207,0.0593977424171,1.00608666366,0.0514819158136,0.425,0.45,2,2,2,811,3
0.0540059811124,0.0622198182387,0.0312563396526,1.51531998026,0.518,0.45,3,3,1,812,3
2.20272914703,0.0648328707641,0.0153317845569,-0.119902247956,0.594,0.45,0,0,1,813,3
0.0729331433237,1.23542281975,0.0198604653238,0.0253132524196,0.515,0.45,1,1,1,814,3
0.0457120192911,0.0286075719957,1.38605810947,-0.0341314410544,0.365,0.45,2,2,2,815,3
0.0482484240075,1.11751585549,0.0624238126664,0.023921388119,0.642,0.45,1,1,1,816,3
1.42147668962,0.0360338439135,0.0522419295898,0.01916570177,0.618,0.45,0,0,1,817,3
0.073705232105,0.0378197914839,0.0535581432909,1.06892065091,0.409,0.45,3,3,2,818,3
0.0726837886383,1.60451287615,0.0465566404425,-0.0200315258088,0.517,0.45,1,1,1,819,3
0.0579284434844,0.0374742395639,0.0468341487586,1.62152215576,0.498,0.45,3,3,1,820,3
2.0090989803,0.0440086706981,0.0392043523149,0.0181341256148,0.455,0.45,0,0,1,821,3
0.107888935109,0.0491311262108,1.55820412907,0.0261971704897,0.324,0.45,2,2,2,822,3
0.130005409164,0.0611145153671,0.0176190895157,2.432510887,0.468,0.45,3,3,1,823,3
0.09747883301,0.0466013544417,1.42706392491,0.0516479590021,0.498,0.45,2,2,1,824,3
1.36738397574,0.0468418803921,0.0313258111334,0.0334081519701,0.498,0.45,0,0,1,825,3
0.0814656847394,0.0508153729157,0.0360313193481,1.92484933283,0.531,0.45,3,3,1,826,3
0.0916382970531,1.08928136766,0.0265816816165,0.00600283191792,0.557,0.45,1,1,1,827,3
0.0707767384065,0.0395157528818,1.28083615402,0.0447621918789,0.367,0.45,2,2,2,828,3
0.0854514522973,1.33132716788,0.0391284286077,0.059938112649,0.618,0.45,1,1,1,829,3
1.02394456769,0.0158541247982,0.0521578452288,0.0371708640323,0.487,0.45,0,0,1,830,3
0.0436087958084,1.30847608838,0.0333164973758,0.0113641559686,0.551,0.45,1,1,1,831,3
0.0643214962584,0.0314331191155,1.86238604692,0.0399058356784,0.392,0.45,2,2,2,832,3
0.0549512785579,0.0312573976917,0.0271403072626,1.72968273193,0.368,0.45,3,3,2,833,3
1.7124187947,0.0312505923837,0.0599224364325,0.0313272467105,0.498,0.45,0,0,1,834,3
0.018577176343,0.0263099895029,1.55306893683,0.141960366327,0.367,0.45,2,2,2,835,3
1.86932869563,0.0246947206457,0.0473973137362,0.0366916240034,0.516,0.45,0,0,1,836,3
0.099699248675,0.0236705191326,0.0690030437702,1.61234116837,0.443,0.45,3,3,2,837,3
0.100808754715,0.0303397786382,1.78243538885,0.0113270350083,0.428,0.45,2,2,2,838,3
0.120289288569,1.37417665931,0.0548857782794,-0.00564582725315,0.393,0.45,1,1,2,839,3
0.0717309138105,0.0423717207278,0.047358413695,1.30482968181,0.461,0.45,3,3,1,840,3
0.0676048701734,1.12051427281,0.0252628598449,0.0398371606194,0.526,0.45,1,1,1,841,3
1.17224537337,0.0407827575706,0.0400860557655,0.00974569554173,0.483,0.45,0,0,1,842,3
0.0928383322952,1.49450383904,0.00133518919767,0.00989840221426,0.566,0.45,1,1,1,843,3
0.0558453490461,0.0210570455559,0.127229495691,1.18117776286,0.463,0.45,3,3,1,844,3
0.0337409992923,0.0421977320839,1.17885883375,-0.00600129778847,0.342,0.45,2,2,2,845,3
1.55098522091,0.0375290097629,0.0432081211614,0.0226607429792,0.518,0.45,0,0,1,846,3
0.103337013322,0.0451001245822,1.27726778449,0.116557685846,0.337,0.45,2,2,2,847,3
0.0378851016579,0.0467354871169,0.0125171991304,2.94292621007,0.479,0.45,3,3,1,848,3
1.76861894443,0.0414310865146,0.0419101134193,0.0316397112272,0.491,0.45,0,0,1,849,3
0.038730475556,0.0429618163893,0.0502880798169,1.20608549811,0.478,0.45,3,3,1,850,3
0.0706707342813,1.09101444552,0.0893220052272,0.0503797050622,0.517,0.45,1,1,1,851,3
1.26055224892,0.0466115905374,0.0435825622102,0.0304628484185,0.531,0.45,0,0,1,852,3
-0.00593466141292,1.3104562679,0.011396932968,-0.0828635770255,0.485,0.45,1,1,1,853,3
0.0625475588555,0.0395035259297,1.50461839711,0.0175108160758,0.33,0.45,2,2,2,854,3
0.0614511317155,0.0391012250695,0.033708706547,1.1114895111,0.128,0.45,1,3,-1,855,3
0.0808224740684,1.12691822301,0.109146043762,0.0495622715395,0.496,0.45,2,1,-1,856,3
0.0596738717941,0.0238824205182,0.0907790627239,2.30666388704,0.525,0.45,3,3,1,857,3
1.77476089823,0.025277703326,0.0565001931367,0.0553217104056,0.528,0.45,0,0,1,858,3
0.0799497486336,0.0303899562649,0.0106450201461,1.86350348916,0.482,0.45,3,3,1,859,3
0.0734628010064,0.0324718613782,1.65747170958,0.0519505298257,0.44,0.45,2,2,2,860,3
2.10161343818,0.031663097451,0.0531209039943,0.0474371933221,0.531,0.45,0,0,1,861,3
0.0731148094852,1.55726925306,0.0449676662883,0.0423564956667,0.508,0.45,1,1,1,862,3
0.0693360635617,0.03136829406,0.0449174605522,1.75812214912,0.513,0.45,3,3,1,863,3
0.0746152124974,1.4765926474,0.0379498612128,0.0556301053689,0.467,0.45,1,1,1,864,3
1.19508370353,0.0382188568959,0.0389620008068,0.0572609269958,0.564,0.45,0,0,1,865,3
0.116414737492,0.0286383530605,1.19480130104,0.0623418754127,0.327,0.45,2,2,2,866,3
0.11032287707,1.35379690187,0.0472525118063,0.056764458103,0.394,0.45,1,1,2,867,3
0.182841126656,0.0641486246798,0.0987793822054,0.203589086083,0.7,0.45,3,-1,0,869,4
0.175042917444,0.0555844796745,0.118756549388,1.08787156033,0.101,0.45,1,3,-1,869,4
0.046335313176,0.031886647025,1.1672179322,0.0601970135662,0.411,0.45,2,2,2,870,4
0.0808715523964,1.32291393631,0.0604611135398,0.112176477174,0.363,0.45,0,1,-1,871,4
0.128021608055,0.0239491660179,1.32656268006,0.147022300471,0.373,0.45,2,2,2,872,4
0.161689083442,1.09931914967,0.0718933701881,0.0943027679934,0.379,0.45,1,1,2,873,4
1.10300239602,0.0475795105179,0.0704434154291,0.0869034018249,0.366,0.45,0,0,2,874,4
0.124924645827,1.14894356091,0.0524941787082,0.0680967782877,0.513,0.45,1,1,1,875,4
0.124244856161,0.0476571300329,0.0740816069752,1.07027249911,0.517,0.45,3,3,1,876,4
0.109946150935,0.0469817429046,1.2735229838,0.0315990783206,0.41,0.45,2,2,2,877,4
0.129157498501,0.0468840085347,0.054513478253,1.30257555086,0.528,0.45,3,3,1,878,4
1.4118624456,0.0373092601564,0.0477542957576,0.0313183826731,0.484,0.45,0,0,1,879,4
0.079104447235,0.0367021489353,0.180737375172,1.11527047071,0.519,0.45,3,3,1,880,4
0.09370019066,0.0387077924599,1.01108856545,0.0544883670025,0.445,0.45,2,2,2,881,4
1.45391774388,0.0390132532713,0.0476511282702,0.0491492087763,0.4,0.45,1,0,-1,882,4
1.51087961886,0.0390575041039,0.0469325565583,0.0470949975659,0.459,0.45,0,0,1,883,4
0.0826021323066,0.0390617920006,1.17080521797,0.0494065371178,0.407,0.45,2,2,2,884,4
1.77865752162,0.0390624229821,0.0460202542395,0.0494114688713,0.443,0.45,0,0,2,885,4
0.0871286288309,1.03625380216,0.0536573224229,0.0483875423215,0.396,0.45,1,1,2,886,4
0.0920355886363,0.0291985361761,0.0443959385053,1.16112054377,0.459,0.45,3,3,1,887,4
1.25600049091,0.0320994821701,0.0548427975478,0.015667301456,0.444,0.45,0,0,2,888,4
0.0892772928568,0.0451836406838,0.0589549917835,1.34046837873,0.483,0.45,3,3,1,889,4
0.111501773534,1.14342069408,0.0520401805109,0.0642204314027,0.605,0.45,1,1,1,890,4
0.0708978628864,0.0316239346425,1.59979118365,0.0693538963745,0.446,0.45,2,2,2,891,4
0.071295039827,0.0312718718338,0.0469801458168,1.99117313637,0.371,0.45,3,3,2,892,4
1.14606407904,0.0312532183903,0.0468836674345,0.0311782451605,0.298,0.45,0,0,2,893,4
0.125768034215,0.0351307456331,1.39854506359,0.0283205858704,0.338,0.45,2,2,2,894,4
0.123442607781,1.11582860498,0.0470636123861,0.0330949699785,0.345,0.45,1,1,2,895,4
1.03259058483,0.04021536472,0.0468902595172,0.0296236342714,0.383,0.45,0,0,2,896,4
0.102920345826,0.0260213295035,0.0468772962835,1.57361760459,0.31,0.45,1,3,-1,897,4
0.0900170384197,0.0363619694831,0.0535344315858,1.08364531483,0.4,0.45,2,3,-1,898,4
0.0618595632229,0.054871524001,1.26436759819,0.0247943983414,0.489,0.45,3,2,-1,899,4
0.06594317839,0.0547008246094,1.13211732516,0.0614442573745,0.523,0.45,2,2,1,900,4
1.68801971474,0.0474852988216,0.0399057263382,0.042413615831,0.527,0.45,0,0,1,901,4
0.0515197270593,0.0525355991069,0.0454731245228,1.90980307747,0.47,0.45,3,3,1,902,4
1.30543825951,0.0469587054739,0.0394333230703,0.0349168925584,0.501,0.45,1,0,-1,903,4
0.0782486980656,0.0485475820307,0.0548048748066,1.47377140147,0.422,0.45,3,3,2,904,4
0.0858534292591,0.0539020783941,1.77220895232,0.0156490816887,0.38,0.45,2,2,2,905,4
0.0905154725149,1.44658390716,0.0392804788333,0.0175754657522,0.306,0.45,0,1,-1,906,4
0.201507593485,1.0805782612,0.0557442824351,0.0367677899367,0.614,0.45,1,1,1,907,4
0.0673686398682,0.0324593853626,1.23998628192,0.03190563197,0.406,0.45,2,2,2,908,4
0.0453775170027,1.21071394255,0.0469802952219,0.0640550423255,0.528,0.45,1,1,1,909,4
2.35366802113,0.019209235374,0.0397954402427,0.0262131599497,0.695,0.45,0,0,1,910,4
0.106424669363,0.0421110575035,0.101763518971,1.16653508437,0.457,0.45,3,3,1,911,4
1.75821020688,0.0529303311878,0.0398513703534,-0.00690453616918,0.568,0.45,0,0,1,912,4
0.0943160774349,0.0513166356029,1.73912879044,-0.00619287605787,0.382,0.45,2,2,2,913,4
0.0912307413009,0.0542146980132,0.038440994217,2.20363392779,0.328,0.45,3,3,2,914,4
0.096705432248,1.6495411661,0.0439885911603,0.0463959125933,0.366,0.45,1,1,2,915,4
0.0641940287543,0.0312769806161,0.0338595876992,0.0408742940328,0.7,0.45,3,-1,0,917,4
0.0628500619934,0.031252985721,0.0528053843597,0.0846041654262,0.7,0.45,0,-1,0,918,4
0.0653135059016,0.0312510234361,0.0467979739882,1.47934335303,0.375,0.45,2,3,-1,918,4
0.066878329317,0.947612001353,0.20267671096,0.00563297496339,0.7,0.45,1,-1,0,920,4
0.0702593969643,1.03265055265,0.147783857146,0.00513745786175,0.0450000000004,0.45,2,1,-1,920,4
1.64117955486,0.0439802048306,0.0928312162286,0.152791123068,0.487,0.45,0,0,1,921,4
0.0662474665508,1.6512709813,0.0365063515872,0.0404406059971,0.475,0.45,1,1,1,922,4
0.0414213052501,0.0266908241601,0.0478009315084,1.31294419844,0.458,0.45,3,3,1,923,4
0.0552944597204,1.60869498733,0.0386675437933,0.013823135097,0.596,0.45,1,1,1,924,4
1.00169451151,0.0396124312997,0.0652395220084,0.0363387380993,0.46,0.45,0,0,1,925,4
0.0943219039078,0.0391122752333,1.00187195493,0.0372265274691,0.404,0.45,3,2,-1,926,4
0.101860013188,0.0390684789351,1.19503792143,0.0457654744295,0.403,0.45,2,2,2,927,4
0.0990121575462,0.0390628932367,0.0316942022767,2.0006937099,0.606,0.45,3,3,1,928,4
1.37004028355,0.0355235619088,0.03131614168,0.0395377051877,0.515,0.45,0,0,1,929,4
0.0968807266912,1.64612567135,0.0408930611319,0.0521699177556,0.491,0.45,1,1,1,930,4
0.101394140142,0.0316818685988,1.56907072538,0.0547959837654,0.333,0.45,2,2,2,931,4
1.02080849155,0.465872042451,0.0356556999672,-0.0806113380263,0.642,0.45,0,0,1,932,4
0.0874989750487,0.211234956617,1.25466892846,0.0355553119104,0.652,0.45,2,2,1,933,4
0.106238614182,1.47954190899,0.0221867102342,-0.0366287982589,0.606,0.45,1,1,1,934,4
1.50466990841,0.0161033698971,0.0376118194196,0.0262115945718,0.42,0.45,0,0,2,935,4
0.0659817081807,0.0369767536189,0.0265229967067,1.72452365216,0.377,0.45,3,3,2,936,4
1.31275917631,0.0343281009399,0.0444587868616,0.002875823027,0.466,0.45,1,0,-1,937,4
0.058832194937,0.0321483543838,0.038771277531,1.4174724599,0.553,0.45,3,3,1,938,4
0.0631336929859,0.025190680066,1.16217490981,0.0100191933196,0.372,0.45,2,2,2,939,4
0.073007855907,0.0245245195879,0.0393732990823,1.65185767744,0.5,0.45,3,3,1,940,4
0.066919767131,0.0342498107399,1.35804815119,0.0547108385285,0.405,0.45,2,2,2,941,4
1.14124101381,0.0244507746524,0.0473950932448,0.0546882491366,0.525,0.45,0,0,1,942,4
0.0790640371689,1.11840265363,0.0469471088235,0.044481555823,0.45,0.45,1,1,1,943,4
1.23468514773,0.03589817249,0.112050103263,0.00450981963012,0.665,0.45,0,0,1,944,4
0.0387105886474,0.0399661692329,1.19404293093,0.0178374043909,0.489,0.45,2,2,1,945,4
0.0936960764773,1.2987242241,0.0455961016231,0.0227818938916,0.575,0.45,1,1,1,946,4
0.0599877842011,0.0313805119038,0.039117069228,1.26331279389,0.472,0.45,3,3,1,947,4
0.0666901047632,1.4871727839,0.0390671313172,0.00165913199388,0.587,0.45,1,1,1,948,4
0.060064845773,0.0236633001132,1.55026903719,0.000258784288818,0.408,0.45,2,2,2,949,4
0.0571314239503,0.0234445461919,0.0393427427343,1.20911400554,0.451,0.45,3,3,1,950,4
1.09637931075,0.021294244355,0.0383157289399,-0.0117584287274,0.515,0.45,0,0,1,951,4
0.0596887278879,0.0444089139713,0.0389669190699,1.30492445761,0.497,0.45,3,3,1,952,4
0.0715855073427,0.0266066177797,1.30345020716,0.256936986084,0.4,0.45,2,2,2,953,4
1.28086185323,0.0236709868984,0.0469065148499,0.0129768562384,0.561,0.45,0,0,1,954,4
0.0468212656434,1.06712403799,0.615778306673,-0.035491551322,0.402,0.45,1,1,2,955,4
0.0487787778425,0.0315013648831,1.06075630526,-0.0142133796111,0.363,0.45,2,2,2,956,4
0.0619286057492,0.0312764904848,0.0470717561435,1.21871828026,0.246,0.45,1,3,-1,957,4
1.07466844073,0.0568598427371,0.00659361785716,0.126997000613,0.56,0.45,0,0,1,958,4
0.0529792904448,1.00686319113,0.171722273244,0.0542912609314,0.488,0.45,2,1,-1,959,4
0.0753177379332,0.0189159989677,0.188056145852,0.141228476123,0.7,0.45,3,-1,0,961,4
0.0747345854569,1.25789489638,0.0411568742516,0.0623368182031,0.578,0.45,1,1,1,961,4
0.0682804315193,0.0342533542074,0.0353243111222,2.18065633042,0.598,0.45,3,3,1,962,4
1.46317085079,0.0530020443335,0.0592976734228,-0.0111317148468,0.495,0.45,0,0,1,963,4
0.0484599322693,0.0485330425174,0.0948685128296,1.01005580423,0.599,0.45,3,3,1,964,4
0.0635329004669,1.30178600975,0.0437722182426,0.0120582807811,0.548,0.45,1,1,1,965,4
0.0704678026764,0.0199648811153,1.15935631952,0.0110323076533,0.395,0.45,2,2,2,966,4
1.32871086283,0.0233370383823,0.0304107308853,-0.0647558915103,0.464,0.45,0,0,1,967,4
0.0765195516332,1.45397296832,0.0486498065303,0.0515330203107,0.555,0.45,1,1,1,968,4
1.14190489221,0.0314672603782,0.0412364178881,0.0482811855364,0.617,0.45,0,0,1,969,4
0.104781002903,0.0312791520035,1.30968912811,0.0404458644917,0.52,0.45,2,2,1,970,4
0.168834069216,1.10314406362,0.045068222627,0.0327208108799,0.637,0.45,1,1,1,971,4
0.0583227324541,0.0393595940881,0.0319975251928,1.83152922481,0.59,0.45,3,3,1,972,4
1.36551955356,0.027002137239,0.045919678764,0.0078164989712,0.537,0.45,0,0,1,973,4
0.0465993753007,0.043216721002,0.0537114807477,1.18114108047,0.545,0.45,3,3,1,974,4
0.0861271705493,0.321337086664,1.42236171243,0.0395016363605,0.555,0.45,2,2,1,975,4
0.0590299556777,0.0230263321811,0.0428534833901,2.54875907456,0.556,0.45,3,3,1,976,4
0.0591850262935,0.0234960227194,1.43506810232,-0.0471605016005,0.423,0.45,2,2,2,977,4
1.05623540066,0.0123028620414,0.0279672081968,-0.0515795349836,0.509,0.45,0,0,1,978,4
0.0914683606307,1.05282579757,0.0513940998821,0.0387954455478,0.377,0.45,1,1,2,979,4
1.1537266638,0.0310023198238,0.0472832217483,-0.0282085939203,0.445,0.45,0,0,2,980,4
0.0425300940351,0.0471328593599,1.07799614231,0.0245836816076,0.376,0.45,2,2,2,981,4
0.048024652938,1.26266018695,0.0344970581938,0.00870914749554,0.471,0.45,1,1,1,982,4
0.115872494482,0.0298987054913,0.0850505967261,1.09680454363,0.561,0.45,3,3,1,983,4
0.0652676105718,1.37576802737,0.0575764690467,0.00779471154229,0.546,0.45,1,1,1,984,4
0.0531730275336,0.0315659091798,1.112045538,0.00398354618985,0.466,0.45,2,2,1,985,4
0.0588943705086,0.031285742522,0.0398946972269,1.14821056188,0.335,0.45,3,3,2,986,4
1.44452960226,0.0312530791395,0.0520523180111,0.00780424205666,0.442,0.45,0,0,2,987,4
0.0424759773909,0.0312503060433,0.0257729438032,1.68559428938,0.508,0.45,3,3,1,988,4
1.52044707979,0.0272517744268,0.0874423917179,-6.56491058209e-05,0.512,0.45,0,0,1,989,4
0.0710700454829,0.0306116691443,1.21840441706,0.0679033757784,0.403,0.45,2,2,2,990,4
0.0704848808189,1.38012720173,0.0469303572449,0.030408870409,0.594,0.45,1,1,1,991,4
1.05439940622,0.0312825166774,0.0519931124598,0.0361325885314,0.578,0.45,0,0,1,992,4
0.047915365092,1.20606084091,0.0328052888146,0.0199555451811,0.582,0.45,1,1,1,993,4
0.0568172803576,0.0493644067552,1.35168682116,0.0172454635531,0.537,0.45,2,2,1,994,4
0.0720112551916,0.0490345577474,0.0340904092112,1.01396133735,0.48,0.45,3,3,1,995,4
0.0796618375812,0.0490490560643,1.04118361901,0.0468951074869,0.404,0.45,2,2,2,996,4
1.72283204919,0.0541738017154,0.0263099307034,0.0433242706772,0.488,0.45,0,0,1,997,4
0.0413529430099,0.0416076514927,1.07678039609,0.0463292875278,0.408,0.45,3,2,-1,998,4
1.37200191472,0.0511565860049,0.00756331071292,0.136310844872,0.515,0.45,1,0,-1,999,4
0.0475896553245,0.0281577930709,0.0727725075587,2.51599207018,0.545,0.45,3,3,1,1000,4
1.26604703296,0.0391020053408,0.0373941223649,0.0182142970563,0.42,0.45,0,0,2,1001,4
0.0405619179973,1.37204004801,0.0349305100545,0.0172542138927,0.346,0.45,1,1,2,1002,4
0.060052733733,0.0388103487029,1.46827939184,0.00972151752275,0.356,0.45,2,2,2,1003,4
1.00448425557,0.0480943799917,0.0546568274929,0.032905601838,0.505,0.45,0,0,1,1004,4
0.0540969450271,0.0301236821852,1.27386021152,0.0172914369433,0.436,0.45,2,2,2,1005,4
0.0558954052229,1.08846390175,0.0239256720799,0.0342844737128,0.364,0.45,1,1,2,1006,4
0.112274199655,0.0256347953849,0.028874463618,1.69885991873,0.62,0.45,3,3,1,1007,4
0.0786866656716,1.02045429279,0.043840367568,-0.0315400900716,0.627,0.45,1,1,1,1008,4
1.29604211792,0.024138547859,0.0277475275419,-0.0190713965835,0.47,0.45,0,0,1,1009,4
0.100672929334,0.0335012038998,0.0476973868093,1.49870448868,0.524,0.45,3,3,1,1010,4
0.0985036394916,0.0374333284918,1.3909643717,-0.00775622302564,0.423,0.45,2,2,2,1011,4
0.0679570689069,0.0340771089932,0.123345839803,1.64596758404,0.7,0.45,3,-1,0,1013,4
0.0679570689069,0.0340771089932,0.123345839803,1.64596758404,0.00400000000045,0.45,2,3,-1,1013,4
1.31576089516,0.0291596755862,0.0440627375593,-0.0110182561869,0.574,0.45,0,0,1,1014,4
0.0675883733919,1.34773589325,0.0363204131842,0.0164710166638,0.411,0.45,1,1,2,1015,4
1.35743985221,0.0391259038927,0.0412178086419,-0.00416626749975,0.625,0.45,0,0,1,1016,4
0.0986606542119,0.031829675679,1.11349230841,0.0328134508925,0.411,0.45,2,2,2,1017,4
1.14861035514,0.025823366073,0.142499426388,0.00862678314764,0.499,0.45,1,0,-1,1018,4
0.064971727116,0.0345590900532,1.47037459057,0.0367876598279,0.534,0.45,2,2,1,1019,4
0.0655782641139,0.031589708353,0.0147545970641,1.66988136382,0.507,0.45,3,3,1,1020,4
1.6556037291,0.133161189409,0.0436919314845,-0.0078113012226,0.593,0.45,0,0,1,1021,4
0.0875531907377,0.0385051742664,0.0468709763146,1.68759480024,0.496,0.45,3,3,1,1022,4
0.109108909788,1.29063447566,0.0455863691862,0.0100706300162,0.498,0.45,1,1,1,1023,4
0.0669147461997,0.0469387850351,0.0811113809918,0.022521932245,0.7,0.45,3,-1,0,1025,4
1.63569934338,0.0371474334342,0.0406646825219,0.0145878934042,0.579,0.45,0,0,1,1025,4
0.0559962428063,1.03266684914,0.0445497294092,0.0138555831812,0.607,0.45,1,1,1,1026,4
0.0764940177458,0.0474446476037,1.28784730112,0.0188135713754,0.524,0.45,2,2,1,1027,4
0.0743535556864,1.14503756933,0.02387382978,0.0168169344372,0.635,0.45,1,1,1,1028,4
1.12501106316,0.0426262795508,0.0235039215812,0.0265097894187,0.527,0.45,0,0,1,1029,4
0.0661496373276,0.0420257182963,1.15508487099,0.0232577788632,0.422,0.45,2,2,2,1030,4
1.4894682284,0.0395716747584,0.0399485335866,0.0218352332914,0.458,0.45,0,0,1,1031,4
0.0617820221929,0.0304915208173,1.28850021654,0.0226881288402,0.439,0.45,3,2,-1,1032,4
0.0649866248088,0.0309649914386,0.0393907042818,1.10467239616,0.0630000000005,0.45,1,3,-1,1033,4
0.0334611834816,0.040252414024,-0.0259920379964,1.7611454544,0.504,0.45,3,3,1,1034,4
0.0623337728643,0.03925212153,1.33285183514,0.0321550235893,0.413,0.45,2,2,2,1035,4
0.0630356260114,0.0390763088438,0.0284978458568,1.90753895605,0.582,0.45,3,3,1,1036,4
0.0514583029587,0.0390645805084,1.29929765031,0.0258385755887,0.51,0.45,2,2,1,1037,4
0.0624625792412,1.36412766129,0.0386372015951,0.0331570257407,0.515,0.45,1,1,1,1038,4
1.06754386265,0.0414886461457,0.0408000921146,0.0361361664892,0.357,0.45,0,0,2,1039,4
0.0844339393867,0.0461199995713,1.56165150863,0.0789668713085,0.587,0.45,2,2,1,1040,4
1.04875418247,0.0467787870323,0.0304066537201,0.043082304479,0.57,0.45,0,0,1,1041,4
0.0768173262632,1.14142182282,0.0134912724219,0.0319154275763,0.547,0.45,1,1,1,1042,4
0.075584237097,0.031905743928,0.0575331362858,1.81722425206,0.587,0.45,3,3,1,1043,4
1.01530458761,0.0313290120028,0.034533985374,-0.0102478652297,0.539,0.45,0,0,1,1044,4
0.0334918200377,0.0363881850223,0.0170265753979,1.44515127257,0.464,0.45,3,3,1,1045,4
0.0603175023057,1.25815373787,0.03787072547,-0.0417368607593,0.579,0.45,1,1,1,1046,4
0.0718126066303,0.0472239806805,1.34423334229,-0.0217191993367,0.395,0.45,2,2,2,1047,4
0.0696367711089,0.0468873751676,0.0329974871158,2.02764173195,0.432,0.45,3,3,2,1048,4
0.0666090061273,0.0468759424719,1.01102587799,-0.00312493008393,0.581,0.45,2,2,1,1049,4
1.31894128975,0.0468751016394,0.0315785893916,0.0322420441152,0.62,0.45,0,0,1,1050,4
0.0344246109621,1.27629562887,0.0313015470639,0.00344249044864,0.467,0.45,1,1,1,1051,4
0.0521756318658,0.039706006706,1.22254920647,0.0258652273226,0.402,0.45,2,2,2,1052,4
0.0548530623422,1.2666990487,0.0174977411143,0.0593436722885,0.495,0.45,1,1,1,1053,4
1.25201438355,0.0241478206296,0.0290869256497,0.0574882428545,0.401,0.45,0,0,2,1054,4
0.0640958373232,0.0270848800156,1.04952997659,0.0303121746988,0.393,0.45,2,2,2,1055,4
0.172277690786,0.0236984679304,0.0287197100871,1.74437882399,0.551,0.45,3,3,1,1056,4
1.8344676676,0.0420824710531,0.0492034835906,0.0235696156894,0.545,0.45,0,0,1,1057,4
0.0417819599114,0.0424973879576,1.11748931424,0.0416541457811,0.471,0.45,3,2,-1,1058,4
0.0599283877017,1.04461967772,0.0251304930773,0.00891686051067,0.561,0.45,1,1,1,1059,4
0.0508113117221,0.0373024241846,0.0135601705811,1.6944705754,0.514,0.45,3,3,1,1060,4
2.09946456039,0.0126027339663,0.0424281623841,0.0391194510345,0.471,0.45,1,0,-1,1061,4
0.0498859777924,0.0446922337987,1.54969501519,0.0410663287288,0.589,0.45,2,2,1,1062,4
1.01820587131,0.0550166762647,0.0393767698974,0.0662927217537,0.569,0.45,0,0,1,1063,4
0.0254590570742,0.0507765209219,1.22353663087,0.0439716395877,0.413,0.45,2,2,2,1064,4
0.0346234160482,1.04522522072,0.0406373445676,0.0340985121663,0.394,0.45,1,1,2,1065,4
1.29012586784,0.0300532922633,0.0483353259369,0.0446436269378,0.404,0.45,0,0,2,1066,4
0.0808603640543,1.19359421716,0.0486631420092,0.0315276737088,0.392,0.45,1,1,2,1067,4
0.0644349134652,0.0387901336847,0.0548701430172,0.0520526291492,0.7,0.45,3,-1,0,1069,4
0.0614253522638,0.0388691866996,0.0427264484247,1.31717037157,0.125,0.45,0,3,-1,1069,4
0.116285049845,0.0390528010384,0.054085136851,1.09250337079,0.415,0.45,3,3,2,1070,4
0.0725864005499,0.0367544011623,1.38302074261,0.00369231972393,0.455,0.45,2,2,1,1071,4
0.0650738560013,0.0265695475894,0.0450279067343,1.74624781394,0.496,0.45,3,3,1,1072,4
1.01497185206,0.0306343259422,0.0379036213587,0.00782564998185,0.451,0.45,0,0,1,1073,4
0.0814849891251,0.0311834923974,1.47432776874,0.0213280212587,0.489,0.45,2,2,1,1074,4
0.0684184830862,0.120258202097,0.0497931403085,0.0157371714198,0.7,0.45,1,-1,0,1076,4
1.42230411053,0.0540322646462,0.0598605055124,0.0434162718893,0.53,0.45,0,0,1,1076,4
0.0499050182265,1.35473805771,0.050477510147,0.0376185597432,0.485,0.45,1,1,1,1077,4
0.0562913132174,0.0237768012137,1.12820971684,0.0392235666273,0.31,0.45,2,2,2,1078,4
1.59734350127,0.0335218629985,0.0470434677033,0.0534434612923,0.535,0.45,0,0,1,1079,4
0.0684957608502,0.0286618170093,0.424302534308,1.54904634234,0.46,0.45,3,3,1,1080,4
1.00279866957,0.657312497891,0.0597404929724,0.0165753749479,0.604,0.45,1,0,-1,1081,4
0.0613064576886,0.0345379372126,0.0343408240018,1.12756846071,0.555,0.45,3,3,1,1082,4
0.0813695126865,1.24809288719,0.0632878947784,0.0299489257096,0.423,0.45,2,1,-1,1083,4
0.067283033254,0.00998439023432,0.06600182123,2.15946718982,0.534,0.45,3,3,1,1084,4
0.301283085054,0.206288338466,0.273902252811,0.32239884103,0.7,0.45,0,-1,0,1086,5
1.91547723184,0.200514394481,0.242705176292,0.239054953126,0.0630000000005,0.45,3,0,-1,1086,5
0.136524799086,1.17703324514,0.817340320469,0.00957395625939,0.498,0.45,1,1,1,1087,5
0.102093845763,0.031546124082,1.68280533782,0.018311965938,0.363,0.45,2,2,2,1088,5
0.111419934761,0.031271467634,0.0518800835396,1.30726966756,0.253,0.45,1,3,-1,1089,5
0.112567076968,0.0312521340604,0.0545563242382,2.16299102792,0.309,0.45,3,3,2,1090,5
0.113237939978,1.52182507086,0.0502011509234,0.0635367065659,0.367,0.45,2,1,-1,1091,5
1.61175143906,0.0423329966433,0.0134620221079,0.232178677324,0.563,0.45,0,0,1,1092,5
0.0991918822317,1.51941860539,0.0558693356421,0.0258471449914,0.514,0.45,1,1,1,1093,5
1.7188957104,0.0667037873737,0.0375013504334,0.0694490494484,0.486,0.45,0,0,1,1094,5
0.0606962132853,0.0412932813383,1.0405630034,0.00197616425085,0.376,0.45,2,2,2,1095,5
0.0864534564015,0.0422769303354,0.0607556783649,2.1522414583,0.488,0.45,3,3,1,1096,5
1.32387445704,0.0500851141411,0.0400355088019,-0.000316203417027,0.408,0.45,0,0,2,1097,5
0.104743513469,0.0494591054208,-0.0660609478954,1.08726842021,0.47,0.45,3,3,1,1098,5
0.101973007442,1.04589186513,0.038505625928,0.0205097245381,0.481,0.45,1,1,1,1099,5
0.0639495802505,0.0472972499266,1.27763880204,0.0361034743965,0.321,0.45,2,2,2,1100,5
1.08661542161,0.0469019002599,0.0471433826501,0.0386275647163,0.243,0.45,1,0,-1,1101,5
0.10882034995,0.0518280171772,0.0404556806456,1.43903553562,0.467,0.45,3,3,1,1102,5
0.0924793278932,0.040699043904,1.26825062874,0.0238912123531,0.4,0.45,2,2,2,1103,5
0.100539934801,0.0392176173999,0.114363246438,1.84084518146,0.48,0.45,3,3,1,1104,5
1.29527975602,0.0390839790576,0.0365329908743,0.00296945819665,0.436,0.45,0,0,2,1105,5
0.090780433095,0.0390652897163,1.80050892057,-0.00737381266737,0.413,0.45,2,2,2,1106,5
1.69688112186,0.0841263610327,0.0272752384734,-0.00710647879643,0.532,0.45,0,0,1,1107,5
0.0475954412395,1.41028169323,0.242683228987,-0.0286958597432,0.453,0.45,1,1,1,1108,5
1.43127713462,0.066113027515,0.0436506989834,0.0639728573006,0.507,0.45,0,0,1,1109,5
0.0970537226493,1.39389406656,0.0398805482082,0.0284365696167,0.375,0.45,1,1,2,1110,5
0.0660626315359,0.039129752386,1.20109572297,0.0300538240499,0.386,0.45,3,2,-1,1111,5
0.0814878540852,0.0658284720315,0.372274758438,0.0414556550236,0.7,0.45,2,-1,0,1113,5
0.0733054253349,0.0581637010302,1.0266518179,0.0514781795428,0.397,0.45,3,2,-1,1113,5
0.092449075616,1.48781595715,0.042317973811,0.0324413909093,0.567,0.45,1,1,1,1114,5
0.0582460480291,0.273305863178,1.02534089173,0.0343752269061,0.573,0.45,2,2,1,1115,5
0.0659878290523,1.72624643982,0.0390637937995,0.090330577354,0.603,0.45,1,1,1,1116,5
2.20664403117,0.0234973936087,0.0394959253868,0.00527694202775,0.527,0.45,0,0,1,1117,5
0.101971382538,0.0234417987108,0.0383650215545,1.57614726634,0.497,0.45,3,3,1,1118,5
1.63556866568,0.031814452108,0.0758183409853,0.0348654527541,0.521,0.45,0,0,1,1119,5
0.0841159871445,0.0476747818022,1.78809876936,0.0307899420428,0.363,0.45,2,2,2,1120,5
1.00029077625,0.0321343492242,0.0490719644145,0.031202208989,0.398,0.45,0,0,2,1121,5
0.0760991084298,0.0260677588494,1.1922508549,0.0359780586335,0.359,0.45,2,2,2,1122,5
0.0823519332222,2.00816394554,0.0503633612668,0.0407566514771,0.369,0.45,1,1,2,1123,5
0.0937159682213,0.0461382132656,0.143504148217,1.38341169304,0.524,0.45,3,3,1,1124,5
0.0817268063873,1.18631149721,0.0554269234444,0.0381899999931,0.534,0.45,1,1,1,1125,5
0.0821490364776,0.0314333427038,1.69420310553,0.038463335796,0.406,0.45,2,2,2,1126,5
0.0749188350228,0.0312579184348,0.0314142057358,1.3212576459,0.498,0.45,3,3,1,1127,5
1.42636939354,0.0312512731285,0.0385347381664,0.0318533813381,0.402,0.45,0,0,2,1128,5
0.195193197042,1.21757515345,0.0580440002346,0.062109289742,0.496,0.45,1,1,1,1129,5
1.96057619006,0.0554136809122,0.0505701457676,0.0473747993815,0.454,0.45,0,0,1,1130,5
0.103513834496,0.0366374149481,0.0766184478085,2.54381650895,0.464,0.45,3,3,1,1131,5
0.100958429293,0.0386369056458,1.09835006668,0.0157230845584,0.341,0.45,2,2,2,1132,5
1.65526133613,0.0351505562938,0.0316400801332,0.0347895044477,0.488,0.45,0,0,1,1133,5
0.0465059696712,0.0293492371485,0.0610373373564,1.49006448254,0.465,0.45,3,3,1,1134,5
0.0541136869134,1.1225388342,0.0499648907995,0.00803542667126,0.582,0.45,1,1,1,1135,5
0.061652877913,0.0405607650039,1.23359121769,0.0143763193714,0.345,0.45,2,2,2,1136,5
0.0566899906422,0.039124150823,0.0688532882031,2.96246852299,0.385000000001,0.45,3,3,2,1137,5
0.0712823561527,0.0390675627604,1.0790882614,0.00797599997536,0.510000000001,0.45,2,2,1,1138,5
0.0448183919773,0.139447067966,0.818494029009,0.0239206772689,0.7,0.45,1,-1,0,1140,5
1.37403909757,0.0486157471612,0.026479425352,0.0285369747472,0.546000000001,0.45,0,0,1,1140,5
0.0891331680377,0.0405301023391,1.51209630174,0.0789109305702,0.448000000001,0.45,2,2,2,1141,5
1.10730903697,0.0320566600131,0.047131179299,0.0348189550017,0.522000000001,0.45,0,0,1,1142,5
0.0812977143156,1.24647880439,0.038058713661,0.0137375956316,0.373000000001,0.45,1,1,2,1143,5
0.0681795519084,0.0393044468716,0.121111861633,1.77610256574,0.391000000001,0.45,3,3,2,1144,5
1.52167839191,0.0631312776349,0.0331059508292,0.0925160872971,0.493000000001,0.45,0,0,1,1145,5
0.0863521600807,0.0533828600805,1.28897392603,0.0486547910652,0.412000000001,0.45,3,2,-1,1146,5
0.0800903193553,0.0545500468354,1.61445964176,0.0470599955314,0.456000000001,0.45,2,2,1,1147,5
0.0695712546122,1.35414819574,0.0529604444741,0.0722929674047,0.387000000001,0.45,1,1,2,1148,5
0.0629467107039,0.0315601358687,1.92972601729,0.0454949789864,0.480000000001,0.45,2,2,1,1149,5
0.0557114001197,0.0312986336664,0.0422310090974,2.39813126915,0.357000000001,0.45,3,3,2,1150,5
1.55930448295,0.0312572341116,0.0504998230753,0.00483510993879,0.288000000001,0.45,1,0,-1,1151,5
1.55695514914,0.0312505632692,0.054363278702,-0.00115177137965,0.435000000001,0.45,0,0,2,1152,5
0.0737914755381,1.44784979055,0.0506496298128,0.00587271782307,0.415000000001,0.45,1,1,2,1153,5
0.0625343050499,0.0235779355653,0.072112105754,1.85880025235,0.552000000001,0.45,3,3,1,1154,5
1.05501369518,0.0287086809717,0.0637097861977,-0.079691400927,0.482000000001,0.45,0,0,1,1155,5
0.0796861846728,0.0389216989074,1.31503542185,0.0293610116102,0.325000000001,0.45,2,2,2,1156,5
1.40298266799,0.0390648547945,0.00712874245164,0.00119021609584,0.612000000001,0.45,0,0,1,1157,5
0.0675224032975,0.0390630328534,1.3290262319,0.0313143705632,0.403000000001,0.45,2,2,2,1158,5
0.0600341342163,1.19442972822,0.0431962136262,0.0337568799013,0.360000000001,0.45,1,1,2,1159,5
0.10543526391,0.0321386033947,0.0818423666108,2.72773215863,0.451000000001,0.45,3,3,1,1160,5
0.0759618017507,0.0372994057981,1.09799412163,0.00271572617591,0.463000000001,0.45,2,2,1,1161,5
0.0221569301126,0.0201022729441,-0.0263202491962,1.64797346187,0.496000000001,0.45,3,3,1,1162,5
0.143174473163,1.02819359852,0.0434169076825,0.0285537251406,0.7,0.45,1,-1,0,1164,5
0.143174473163,1.02819359852,0.0434169076825,0.0285537251406,0.00100000000051,0.45,0,1,-1,1164,5
0.0683341646158,1.56275751467,0.230583890527,0.0272219365938,0.7,0.45,1,-1,0,1166,5
0.0683341646158,1.56275751467,0.230583890527,0.0272219365938,0.0230000000005,0.45,2,1,-1,1166,5
1.00597595739,0.0390783108747,0.0280306139436,0.043476779308,0.570000000001,0.45,0,0,1,1167,5
0.0767448078003,0.0390637506144,0.0471182413635,0.0299408972763,0.7,0.45,3,-1,0,1169,5
0.0787999455788,0.0353017922491,0.0324737580104,1.07115032453,0.252000000001,0.45,0,3,-1,1169,5
0.0800790026294,0.0387783304563,0.0296691082031,1.26959232548,0.392000000001,0.45,3,3,2,1170,5
1.00461830344,0.0390346667477,0.050911138407,0.0567614296117,0.463000000001,0.45,1,0,-1,1171,5
0.0572659565999,0.0390596845257,1.68497260101,0.0498165916492,0.523000000001,0.45,2,2,1,1172,5
0.0569691315007,0.0351816961105,0.0461692170188,2.21227559748,0.504000000001,0.45,3,3,1,1173,5
0.0773021293187,0.0447798025571,1.71182698198,0.0294309168036,0.422000000001,0.45,2,2,2,1174,5
0.0754287459751,1.47546990159,0.0382376759051,0.0182661693196,0.425000000001,0.45,1,1,2,1175,5
1.08558630178,0.0397960790117,0.0321018854718,0.0240010310211,0.325000000001,0.45,0,0,2,1176,5
0.0395797269775,1.24270134968,0.036288807125,0.0276682546879,0.365000000001,0.45,2,1,-1,1177,5
1.22664729712,0.0556857221062,0.0397267737975,0.0264661046222,0.483000000001,0.45,0,0,1,1178,5
0.0785000742586,1.28267366605,0.0606073663636,-0.0496698343738,0.487000000001,0.45,1,1,1,1179,5
0.0753445946411,0.0275566883452,0.0687395625957,1.9742317495,0.388000000001,0.45,3,3,2,1180,5
1.08934249265,0.031021524351,0.0527859634131,-0.0143400181675,0.501000000001,0.45,0,0,1,1181,5
0.0854884768096,0.0312206680978,0.155202073744,1.21145847827,0.481000000001,0.45,3,3,1,1182,5
