force_0,force_1,force_2,force_3,rt,rt_threshold,target_finger,selected_finger,score,trial,run
0.0402355005779,1.425160717,0.138362543887,0.137491764101,0.489,0.45,2,1,-1,0,0
1.10197008798,0.0312699854821,0.185172561346,0.256922814068,0.372,0.45,0,0,2,1,0
0.00250146050208,0.0041292182116,0.10589996118,1.2807846669,0.316,0.45,3,3,2,2,0
0.0721660292641,1.07288748872,0.244672577933,0.251792854846,0.332,0.45,1,1,2,3,0
0.0192894903597,0.0363731567409,0.364616920443,1.17004793042,0.357,0.45,3,3,2,4,0
1.32987225295,0.0832385543748,0.240515886029,0.393214006262,0.331,0.45,0,0,2,5,0
0.132321250782,1.17974778671,0.202886762798,0.266208951723,0.395,0.45,1,1,2,6,0
0.0222037351362,0.0745289208631,1.064898103,0.393605768531,0.275,0.45,2,2,2,7,0
0.0860376112102,0.0870931245731,0.191746758204,1.22844605998,0.291,0.45,3,3,2,8,0
0.0480550520147,0.0420942339126,1.12655295361,0.305923424537,0.367,0.45,2,2,2,9,0
0.120988015613,1.38779796475,0.201660694358,0.316719985302,0.312,0.45,1,1,2,10,0
1.18534660908,0.16119242787,0.265085887934,0.302091532284,0.309,0.45,0,0,2,11,0
0.00747274476892,0.0641102079158,1.12426941389,0.238494741446,0.346,0.45,2,2,2,12,0
1.63657568682,-0.00530264303122,0.240076424935,0.246181457038,0.328,0.45,0,0,2,13,0
0.0638102320387,1.13402940293,0.512778411954,0.181378850713,0.491,0.45,1,1,1,14,0
-0.0503960471141,0.0128310428385,0.0733318392995,1.2086960586,0.435,0.45,3,3,2,15,0
-0.0501943620192,1.04527121701,0.000242776422652,0.204089757077,0.374,0.45,1,1,2,16,0
1.02961430014,0.125073649627,0.0501379393831,0.472514782821,0.261,0.45,0,0,2,17,0
0.0277509647924,0.0537406126002,0.282152818008,1.03892548736,0.376,0.45,3,3,2,18,0
1.14058034101,0.272480233352,0.00206603426049,0.30876446121,0.416,0.45,0,0,2,19,0
-0.0307785861316,-0.0121688615413,1.03036015057,0.408548318556,0.33,0.45,2,2,2,20,0
-0.0307262326779,-0.015276676592,0.0364336567232,1.12883895536,0.35,0.45,3,3,2,21,0
0.0381834607117,0.0458446882612,1.00858340378,0.951532138318,0.479,0.45,2,2,1,22,0
0.376820703737,1.14442502562,0.0949900805404,0.0612703353606,0.481,0.45,1,1,1,23,0
0.106290793388,1.02441235965,0.123816071139,0.152747688159,0.465,0.45,2,1,-1,24,0
-0.0308674569388,0.00837445810463,0.0190543458211,1.09486462993,0.389,0.45,3,3,2,25,0
1.49957372463,0.00132674310796,0.00818051368077,0.226143339112,0.312,0.45,1,0,-1,26,0
1.48379770425,0.0594307781582,0.000103365576176,0.277090609496,0.45,0.45,0,0,1,27,0
0.0313229827939,1.16305019877,0.00614099296452,0.322682415934,0.42,0.45,1,1,2,28,0
0.0312575997374,0.0415475106632,0.0504443868792,1.1988360396,0.359,0.45,3,3,2,29,0
1.41113801228,0.0125517888027,0.00709121079052,0.252189530347,0.425,0.45,0,0,2,30,0
-0.0390615754293,0.0260047514326,1.00714105607,0.3299838037,0.374,0.45,2,2,2,31,0
1.20333588592,-0.00608234708774,0.138654621302,0.412982001215,0.4,0.45,0,0,2,32,0
-0.0390604011576,0.0276886143505,0.112862849357,1.1554846473,0.426,0.45,3,3,2,33,0
-0.0456641084356,0.0192683383912,1.14620140801,0.216291761396,0.461,0.45,2,2,1,34,0
-0.0296817055318,1.08583796461,0.257540074754,0.225869053135,0.382,0.45,1,1,2,35,0
-0.0361432446518,2.2346795848e-05,0.0550315508887,1.35764926057,0.367,0.45,2,3,-1,36,0
0.0153669176987,0.11218952677,0.0221031153416,0.0468298140503,0.7,0.45,1,-1,0,38,0
0.00654587530488,1.04650159658,0.035067179928,0.0516175560817,0.258,0.45,0,1,-1,38,0
0.0398242182519,-0.00201169311454,0.361726450625,1.0859645978,0.403,0.45,3,3,2,39,0
0.0219950803972,1.00485121443,0.0139147966887,0.252576274078,0.294,0.45,1,1,2,40,0
0.0326548958714,0.00158114106173,0.81117576318,1.09858663943,0.388,0.45,3,3,2,41,0
1.87985548914,-0.00638346275135,0.00323240450246,0.155732946677,0.352,0.45,0,0,2,42,0
-0.0199467993826,0.0109894271857,1.16389666082,0.323052036681,0.296,0.45,2,2,2,43,0
2.409211579,-0.000949798982252,-0.00298878664833,0.326784206502,0.353,0.45,0,0,2,44,0
-0.0677533039834,1.04747302928,-0.00767204060872,0.167632251807,0.337,0.45,1,1,2,45,0
-0.0252442022641,-0.00779524027064,1.09680451567,0.304400248601,0.283,0.45,2,2,2,46,0
-0.0143390960432,-0.00781117236273,0.00786619126339,1.3810279289,0.261,0.45,3,3,2,47,0
-0.0433786064777,0.0154718294351,1.0181820664,0.534132746592,0.418,0.45,2,2,2,48,0
0.184667464937,1.10458603223,-0.00102351363311,0.0204513977833,0.396,0.45,1,1,2,49,0
1.91054413861,-0.0152443257776,0.00700003546674,0.0494025160216,0.264,0.45,0,0,2,50,0
-0.0418820966458,-0.0116834005293,0.0143689989527,1.16397421543,0.404,0.45,3,3,2,51,0
0.054994786426,0.117120996169,0.0328868440821,0.0148012026245,0.7,0.45,1,-1,0,53,0
0.051972014789,1.01426654706,0.020724866509,0.00935620442769,0.113,0.45,3,1,-1,53,0
3.58213269672,0.00330537932664,-0.00839499247116,0.0161025193956,0.386,0.45,0,0,2,54,0
-0.0931794122687,1.18031345347,-0.0285488516979,0.0946971403427,0.298,0.45,2,1,-1,55,0
-0.00579110391804,0.0083345050208,-0.00559985785876,1.01878503986,0.48,0.45,3,3,1,56,0
0.00666764061105,0.010869477518,0.065123621303,0.00765796947374,0.7,0.45,2,-1,0,58,0
0.0526236340062,0.0267768010972,1.00048897159,0.0672418481116,0.206,0.45,0,2,-1,58,0
1.25453753696,-0.00543685269719,-0.00400415075166,0.0440310818588,0.391,0.45,1,0,-1,59,0
0.0232213146431,0.0244563479037,1.14764209339,0.0642976282863,0.365,0.45,2,2,2,60,0
4.13142880317,-0.0228313276485,0.00792353595759,0.0367431423667,0.36,0.45,0,0,2,61,0
0.0166712196785,-0.013581255725,-0.0170914295424,1.45811188674,0.368,0.45,3,3,2,62,0
0.0299492877602,1.46240795532,-0.014249089037,0.039130659577,0.292,0.45,1,1,2,63,0
3.97248851786,-0.00276961372782,0.0059188685465,0.0144231463029,0.332,0.45,0,0,2,64,0
-0.0877003254348,1.68175890861,-0.00130520967763,0.128151956342,0.357,0.45,1,1,2,65,0
0.00543341711267,0.0156982535988,-0.0260343793773,1.07222478765,0.321,0.45,3,3,2,66,0
0.0289539514487,0.046000039179,0.0512409097248,0.0109729897526,0.7,0.45,2,-1,0,68,0
-0.0163127254763,0.0511852004185,-0.00172429530877,0.0245880148957,0.7,0.45,1,-1,0,69,0
0.0134526843412,1.28313275849,-0.000602515814359,-0.0399580516847,0.189,0.45,2,1,-1,69,0
0.0181308401742,0.00945487947508,0.0171838945752,1.24154810077,0.403,0.45,3,3,2,70,0
1.73023565088,-0.0096497712461,0.00513031414933,0.0476366410201,0.401,0.45,0,0,2,71,0
0.0254909779684,0.0125457688492,1.08846729921,-0.0141216706628,0.437,0.45,2,2,2,72,0
0.00145957170124,0.00275712117986,-0.00523888847181,1.41809285312,0.392,0.45,3,3,2,73,0
0.102619694058,0.0169082055134,-0.0221861427374,0.0138223359005,0.7,0.45,0,-1,0,75,0
1.48401585752,-0.00787981509124,-0.0330879219574,0.0196706986938,0.181,0.45,1,0,-1,75,0
0.0480226695079,0.00350506902195,-0.0132917381861,1.20557795526,0.374,0.45,3,3,2,76,0
0.136325074075,1.00542323988,-0.0258277216203,0.0130792036519,0.292,0.45,1,1,2,77,0
1.06005895562,-0.00763903770374,-0.0121728248085,0.0216736738611,0.278,0.45,0,0,2,78,0
0.0195661929911,0.00903075968466,0.026677707648,0.0227205216727,0.7,0.45,3,-1,0,80,0
0.027208614659,-0.0022233310253,0.00206514448644,1.38987066487,0.165,0.45,2,3,-1,80,0
0.0482373337063,0.0213267902018,-0.0133031689916,0.0062342400916,0.7,0.45,1,-1,0,82,0
0.0400532194183,0.0378170301893,1.1411221199,-0.0119316037533,0.493,0.45,2,2,1,82,0
1.07070384921,0.0493181375834,0.00139328432125,-0.0671189085846,0.476,0.45,0,0,1,83,0
0.00865863056955,0.012743142709,1.11293109816,-0.0217926500574,0.42,0.45,2,2,2,84,0
1.19837800143,-0.0214332954664,-0.00880461652967,-0.0215921507977,0.368,0.45,0,0,2,85,0
0.0274618052113,0.0111731912406,-0.00142019762125,1.10043864891,0.411,0.45,3,3,2,86,0
-0.000720671407976,1.13254061687,-0.00467354100812,0.00167895475343,0.347,0.45,1,1,2,87,0
0.0254298123519,-0.0121579985296,0.0121487485704,1.35489479321,0.338,0.45,3,3,2,88,0
1.12422418488,0.00439773800144,0.00859934918213,-0.0133244752384,0.282,0.45,0,0,2,89,0
0.0391171022552,1.03758322941,0.015171202799,0.00952785801325,0.354,0.45,1,1,2,90,0
0.039119420117,0.00557476054103,1.15972380756,0.00043381544015,0.345,0.45,2,2,2,91,0
0.0336698603277,1.03024735586,-0.00844214560458,-0.0108875938471,0.367,0.45,1,1,2,92,0
0.0895465443015,-0.00613617112953,-0.0135200047972,-0.0109747088396,0.7,0.45,0,-1,0,94,0
0.0471467490077,0.0266375199237,0.075559797242,-0.00840523837377,0.7,0.45,2,-1,0,95,0
0.0529232669626,0.0473942990905,0.112063766651,0.0469904189958,0.7,0.45,3,-1,0,96,0
0.0960123901484,0.0807710788719,0.0858254623804,0.137971135283,0.7,0.45,2,-1,0,97,0
0.0724830399435,0.0188244873782,0.00598235340029,0.284893787237,0.7,0.45,3,-1,0,98,0
1.12275129328,0.0127888456293,0.016608231481,0.235933200975,0.537,0.45,1,0,-1,98,0
1.02632504661,0.0185188915489,0.0115724454725,0.161714304911,0.553,0.45,0,0,1,99,0
0.0167698024994,0.0211535519769,0.040141699795,1.0269267115,0.52,0.45,3,3,1,100,0
1.25663231099,0.0100543455515,-0.0125325974903,0.202427012816,0.422,0.45,0,0,2,101,0
-0.0350345323618,1.01411725412,0.00787566964378,0.268704875581,0.341,0.45,1,1,2,102,0
0.0302097129217,-0.00770992307562,1.24739141747,0.201634614084,0.246,0.45,2,2,2,103,0
0.0382970130248,1.03785788966,0.000836355085514,0.130390531686,0.335,0.45,1,1,2,104,0
0.043495310086,0.000244392251293,0.256153763175,1.06714755029,0.344,0.45,3,3,2,105,0
0.0452261070228,0.00797291272178,1.01496106772,0.324504244964,0.403,0.45,2,2,2,106,0
1.01367808415,0.0715431211434,0.00903262077793,0.0160544280976,0.43,0.45,0,0,2,107,0
0.0703461370056,0.0325310594797,0.245735625673,0.132247320069,0.7,0.45,2,-1,0,109,0
0.0661012404066,0.0313000633147,1.00088891503,0.110299648522,0.0520000000001,0.45,3,2,-1,109,0
0.0586055888743,1.06234836942,0.0143869312861,0.0994104280532,0.452,0.45,1,1,1,110,0
1.08106690505,0.00350072974002,0.0384063077413,0.107460549035,0.356,0.45,0,0,2,111,0
0.0323492269894,1.0214493764,0.0141800221394,0.0194181883956,0.392,0.45,1,1,2,112,0
0.0447232232785,0.0240868802146,0.0413669693376,0.0564184741074,0.7,0.45,3,-1,0,114,0
0.0454859779895,0.0238550950957,0.02179512781,1.00139000647,0.138,0.45,0,3,-1,114,0
0.0358122102537,0.0316125116062,0.0362784007095,0.0449642410873,0.7,0.45,3,-1,0,116,0
0.238822740676,0.171799159768,0.173497562481,0.289348266666,0.7,0.45,2,-1,0,117,0
0.0757219419733,0.0878771737063,0.151449160957,0.302974817042,0.7,0.45,0,-1,0,118,0
0.0585231428292,0.0568454118498,1.05442866362,0.403794833657,0.413,0.45,2,2,2,118,0
0.117265645614,1.13294154858,1.01358344534,0.294117437468,0.294,0.45,1,1,2,119,0
1.04947076693,0.1295359869,0.0642425866714,0.270905064055,0.293,0.45,2,0,-1,120,0
1.15148165621,0.00981471984031,0.123122027337,0.345549758719,0.299,0.45,0,0,2,121,0
-0.0119788313138,0.00107618390457,0.201997448121,1.36983105143,0.266,0.45,3,3,2,122,0
0.0266502440001,1.32873095388,0.0974675460522,0.301012525292,0.278,0.45,1,1,2,123,0
-0.0194800742209,0.0371227747734,0.286112375449,1.03644199927,0.419,0.45,3,3,2,124,0
1.01104526734,0.0246799785896,0.00121885422032,0.386404708668,0.307,0.45,0,0,2,125,0
0.031279923482,1.14689539969,0.000131295491699,0.381539187484,0.29,0.45,1,1,2,126,0
0.0189363838191,0.0480325270658,1.05395604117,0.473674217152,0.303,0.45,2,2,2,127,0
1.01772389796,0.00984982887185,0.0704274143689,0.444056820702,0.302,0.45,1,0,-1,128,0
1.14561176397,0.289275268477,0.0783215799507,0.310404210869,0.373,0.45,0,0,2,129,0
0.0432437302585,0.541855238886,1.13913475118,0.489199914453,0.353,0.45,2,2,2,130,0
0.027062936013,0.0183099510331,0.0309979541997,2.56637400912,0.372,0.45,3,3,2,131,0
0.00870418363302,0.0158343344653,0.00877277778013,1.72869614249,0.495,0.45,2,3,-1,132,0
0.168068887071,0.0519975140734,0.168991062848,0.333378362802,0.7,0.45,3,-1,0,134,0
1.03734496794,0.0936491708412,0.148376309975,0.32429707703,0.427,0.45,1,0,-1,134,0
0.0187589148636,0.109858010955,0.231300090484,0.330361259758,0.7,0.45,0,-1,0,136,0
1.05618805603,0.164805543445,0.24673861828,0.352137148525,0.116,0.45,3,0,-1,136,0
1.31366958893,0.0437525299543,0.132835709181,0.482241106468,0.415,0.45,0,0,2,137,0
1.01921653146,0.0113980058811,0.137140495578,0.373268435419,0.38,0.45,1,0,-1,138,0
-0.036752562824,0.0157738064426,0.700899209466,1.09612642171,0.379,0.45,3,3,2,139,0
-0.0270486417529,0.014507822743,1.11109920384,0.661839644231,0.392,0.45,2,2,2,140,0
1.18033328092,0.266137089821,0.0608886302582,0.30505911024,0.437,0.45,0,0,2,141,0
0.00731508709787,0.0152983966394,1.05754906109,0.312767959701,0.298,0.45,2,2,2,142,0
0.0146732404012,1.13574078526,0.18049692271,0.31616986314,0.308,0.45,1,1,2,143,0
0.0101126393833,0.0630353842799,1.03452433457,0.356803199685,0.312,0.45,2,2,2,144,0
0.00872767547518,1.27257956109,0.198135405861,0.464689755877,0.32,0.45,1,1,2,145,0
0.00455672154698,0.0577909503809,0.10016408575,1.02137706465,0.33,0.45,3,3,2,146,0
1.29661248182,0.0754034952704,0.153453075578,0.404957669166,0.407,0.45,0,0,2,147,0
-0.0329157197435,1.11821127453,0.246146733401,0.402440183408,0.302,0.45,1,1,2,148,0
2.10285148747,0.0413321594095,0.119790647057,0.379773667873,0.374,0.45,0,0,2,149,0
-0.0390705929295,0.00940251540358,0.195039912386,1.11438077317,0.352,0.45,3,3,2,150,0
-0.0171488423602,1.24505319621,0.0027837930941,0.294184389695,0.327,0.45,1,1,2,151,0
-0.01033447124,0.151106795435,1.06399591676,0.341816926071,0.338,0.45,2,2,2,152,0
-0.0140468121471,0.0490380110837,0.0734639169031,1.17910764099,0.403,0.45,3,3,2,153,0
-0.017174508141,0.0329284335728,1.24185573447,0.581104245639,0.42,0.45,2,2,2,154,0
1.13399493065,0.0208923350665,0.157637925765,0.490270937058,0.391,0.45,0,0,2,155,0
-0.0382545792721,0.00914931138289,1.11551717608,0.420829830984,0.373,0.45,2,2,2,156,0
-0.0397744620508,0.007981172967,0.0762994116062,1.09866609088,0.339,0.45,3,3,2,157,0
1.17041348832,0.0697557508077,0.0517485146347,0.476428216843,0.368,0.45,0,0,2,158,0
0.12347112471,1.25961266635,0.110057721537,0.384057475168,0.381,0.45,1,1,2,159,0
0.0140641631249,0.0658040105621,0.0642902403148,1.24728692327,0.365,0.45,3,3,2,160,0
0.021949045757,1.0935894875,0.154849264385,0.461891168813,0.42,0.45,1,1,2,161,0
1.1345583759,0.0163976204101,0.155972790788,0.533429069825,0.343,0.45,0,0,2,162,0
0.00567319041296,0.0176876446487,1.15750832954,0.495947556629,0.315,0.45,2,2,2,163,0
0.0299001218721,1.1980811269,0.15216038623,0.408590305562,0.278,0.45,1,1,2,164,0
0.00944298697992,0.0312821641204,1.1789449014,0.336972094485,0.312,0.45,2,2,2,165,0
1.10291894721,0.0317054365532,0.117921081161,0.466242149628,0.373,0.45,0,0,2,166,0
-0.0362982722195,0.0100662959544,0.132310524132,1.06498143455,0.343,0.45,3,3,2,167,0
-0.0155401814701,0.00803254087975,0.0104108637761,1.01650463986,0.391,0.45,2,3,-1,168,0
1.10390146719,0.0259113683961,0.0335817494368,0.0365254253208,0.377,0.45,0,0,2,169,0
0.00793719108303,0.0562373804555,0.703938814416,1.10375852878,0.436,0.45,3,3,2,170,0
-0.0218512424932,1.23788388799,0.0116023771152,0.316613437001,0.405,0.45,1,1,2,171,0
1.00254376084,0.0420250539111,0.0350748212342,0.543251753804,0.409,0.45,0,0,2,172,0
0.00284261990709,1.02829358258,0.0660103240528,0.328085346528,0.451,0.45,1,1,1,173,0
0.00168255124427,0.0682756920239,0.0965200781053,1.12412043577,0.398,0.45,3,3,2,174,0
1.04289010738,0.0079915265853,0.00584955377999,0.303293558591,0.392,0.45,0,0,2,175,0
0.0142437359916,0.000894550247754,1.04803906292,0.38236095519,0.371,0.45,2,2,2,176,0
0.0155055353596,0.000100430918796,0.00857767133625,1.08210304,0.389,0.45,3,3,2,177,0
-0.00773615014246,-0.00625779757288,1.09274724671,0.255359153365,0.39,0.45,2,2,2,178,0
0.0816967511299,1.09430782621,0.00453329278358,0.193864722917,0.344,0.45,1,1,2,179,0
1.02753751847,0.160886685477,0.198541694393,0.50880944635,0.372,0.45,2,0,-1,180,0
1.24220607045,0.0425004865658,0.23614835049,0.565315264935,0.372,0.45,0,0,2,181,0
-0.00691748692674,0.0306215340448,0.566343819173,1.10052383418,0.353,0.45,3,3,2,182,0
0.0674298218314,1.24303874504,0.0245489253478,0.453706932228,0.26,0.45,1,1,2,183,0
0.0171947547654,0.0698565314423,1.05449606054,0.541936447073,0.345,0.45,3,2,-1,184,0
1.20271665143,0.00294853485501,-0.00197525094885,0.358945153066,0.335,0.45,0,0,2,185,0
0.0108530337994,1.06423677388,0.103541938369,0.622076262791,0.402,0.45,1,1,2,186,0
0.0024172418681,0.054980365204,1.06750346847,0.517467286158,0.319,0.45,2,2,2,187,0
-0.000388117070132,0.0180462785883,0.110678563444,1.02728139362,0.242,0.45,3,3,2,188,0
0.00250652304268,0.0158422218204,1.07013904131,0.311278541154,0.313,0.45,2,2,2,189,0
0.0649782104101,1.05531323258,0.268819057799,0.544995805048,0.274,0.45,1,1,2,190,0
0.0575252537966,0.152038205898,0.299205699912,0.535070372817,0.7,0.45,0,-1,0,192,0
0.108294388055,0.0761514604262,1.01382828878,0.560936149623,0.477,0.45,2,2,1,192,0
1.105441057,0.123432286924,0.242896276285,0.513473372325,0.397,0.45,0,0,2,193,0
0.156576932535,1.04089095658,0.2606107545,0.45643226093,0.46,0.45,1,1,1,194,0
0.01304123436,0.137282466485,1.09006531027,0.507635829786,0.33,0.45,3,2,-1,195,0
0.0288881974393,1.06316774139,0.254704154106,0.490877816312,0.391,0.45,1,1,2,196,0
1.00892739309,0.203223868554,0.119115337873,0.473729244582,0.543,0.45,0,0,1,197,0
0.124697015318,0.100716159705,0.113325808276,1.14908558556,0.387,0.45,3,3,2,198,0
0.0704824168297,0.0741885363898,1.19762863135,0.521555489801,0.346,0.45,2,2,2,199,0
0.117736112296,1.02139885162,0.279963189565,0.472014060558,0.561,0.45,1,1,1,200,0
0.023077820703,0.0643184048339,1.17938101659,0.645066839399,0.451,0.45,2,2,1,201,0
0.014896450309,0.00164653507874,0.229123917382,1.2591293157,0.31,0.45,3,3,2,202,0
0.336967818877,0.1074070132,0.220874311919,0.505596745423,0.7,0.45,0,-1,0,204,0
0.669982273228,0.0687690369777,0.228639310536,0.605323943339,0.7,0.45,2,-1,0,205,0
1.05356656953,0.0647102138028,0.22306802654,0.604750726395,0.332,0.45,0,0,2,205,0
-0.0173191399753,1.14772083504,0.233488572566,0.530844048754,0.311,0.45,1,1,2,206,0
-0.0227309489814,0.062567105517,0.0688110587655,1.08655551683,0.369,0.45,3,3,2,207,0
-0.0168915129295,1.0879440091,0.0989077259375,0.470172717319,0.32,0.45,1,1,2,208,0
1.26022496338,0.172662247696,0.135932392613,0.450502923009,0.357,0.45,0,0,2,209,0
0.0152066831264,0.0807938856515,0.191802479897,1.17497672177,0.357,0.45,3,3,2,210,0
-0.00397011790769,0.0545621481548,1.38480369783,0.567011549118,0.376,0.45,2,2,2,211,0
-0.0111929715144,1.06493001319,0.224358482655,0.515358539116,0.289,0.45,1,1,2,212,0
0.0304144246346,0.0659291442479,1.10773701482,0.450543010728,0.389,0.45,2,2,2,213,0
-0.0053433556419,0.01060216954,0.0825447891917,1.18576760932,0.348,0.45,3,3,2,214,0
1.08866847833,0.136850204561,0.184516645095,0.503177431549,0.395,0.45,0,0,2,215,0
-0.00955141881611,0.0297434420915,0.0590165080464,0.405211191053,0.7,0.45,2,-1,0,217,0
1.02769833811,0.0234399346077,0.942063107225,0.997556410028,0.00900000000011,0.45,3,0,-1,217,1
0.104095328191,0.0234375583823,0.378725993548,1.06431296992,0.17,0.45,1,3,-1,218,1
0.125697525493,0.0683094889607,1.06823338795,0.373434199197,0.391,0.45,2,2,2,219,1
0.106518966832,1.15337079439,0.238229872937,0.408658523372,0.265,0.45,0,1,-1,220,1
0.122961763831,1.00349035014,0.231350921289,0.340722485548,0.234,0.45,2,1,-1,221,1
0.0604456904817,1.21452307919,0.263260712179,0.371352478131,0.252,0.45,1,1,2,222,1
1.11881990639,0.0506793725486,0.727419185611,0.341096069114,0.348,0.45,0,0,2,223,1
0.0627353964226,0.0455717702214,1.03243329672,0.449139277995,0.26,0.45,3,2,-1,224,1
2.01764510892,0.253413036397,0.103344849889,0.267562816083,0.372,0.45,0,0,2,225,1
0.123227676655,1.10071589182,0.390916114377,0.461057057676,0.389,0.45,1,1,2,226,1
0.125385909303,0.093081953463,0.865054334533,1.08921427502,0.355,0.45,3,3,2,227,1
0.130892059229,0.248278391706,1.144790981,0.462492440764,0.343,0.45,2,2,2,228,1
0.0776180286277,0.134394143319,0.366912965201,1.1499534718,0.387,0.45,3,3,2,229,1
0.113960531331,0.104470264561,0.945969348498,1.23986307641,0.397,0.45,2,3,-1,230,1
1.23065205181,0.146056224521,0.20826925751,0.516251612179,0.473,0.45,0,0,1,231,1
0.162216430418,1.35304521418,0.226601028067,0.392144165439,0.425,0.45,1,1,2,232,1
0.043515167625,0.0594041792586,1.25926781367,0.451258626684,0.284,0.45,2,2,2,233,1
1.29082382748,0.0439810732402,0.154239933535,0.455236778997,0.319,0.45,1,0,-1,234,1
0.158883665757,1.04016354871,0.240419259917,0.422212625726,0.282,0.45,0,1,-1,235,1
0.107728210374,0.259481129093,2.23554523152,0.525583643717,0.377,0.45,2,2,2,236,1
0.0887368589436,0.0958594843603,0.108403971014,3.05303253055,0.385,0.45,3,3,2,237,1
0.193131050295,1.39745916934,0.104002884063,0.289385556304,0.391,0.45,1,1,2,238,1
0.135646983151,0.126672576396,0.15179055493,1.08056117514,0.353,0.45,3,3,2,239,1
1.26301834035,0.24013879206,0.157145844942,0.487106175874,0.384,0.45,0,0,2,240,1
0.0663968240169,0.0710874865688,0.456149719487,1.07135985203,0.35,0.45,3,3,2,241,1
0.0917639788451,0.0862024350205,1.10210801117,0.440699600259,0.371,0.45,2,2,2,242,1
0.129262071512,1.12768837347,0.266083279618,0.528219558563,0.28,0.45,1,1,2,243,1
1.19206185606,0.169254446122,0.335823905653,0.522405405511,0.263,0.45,0,0,2,244,1
0.0641066238301,0.063802441505,0.267078237489,0.48085808067,0.7,0.45,2,-1,0,246,1
0.0409626963516,0.0443583205404,0.0741161130143,0.353987176831,0.7,0.45,0,-1,0,247,1
1.00487638178,0.0453841412189,0.0734178690204,0.379299025743,0.27,0.45,1,0,-1,247,1
0.038599271454,0.0702876687646,0.368422027129,1.03220485502,0.359,0.45,3,3,2,248,1
1.20577340759,0.0850693464052,0.148134742288,0.544496014959,0.316,0.45,0,0,2,249,1
0.089575289941,0.098302857301,1.03109254617,0.672326501047,0.35,0.45,3,2,-1,250,1
0.222648762872,1.06101275778,0.041564797158,0.553831283545,0.295,0.45,1,1,2,251,1
0.0620793323178,0.100219595555,0.223630867717,1.116898158,0.332,0.45,2,3,-1,252,1
0.0654843818663,0.0873427917711,0.441742933115,1.0810259184,0.437,0.45,3,3,2,253,1
0.0974410457291,0.891565569101,1.01256880766,0.352139205532,0.423,0.45,2,2,2,254,1
1.15182700766,0.172908361085,0.107053365293,0.452986260352,0.376,0.45,0,0,2,255,1
0.0470023787656,1.23752438691,0.27873085338,0.576532451727,0.409,0.45,1,1,2,256,1
0.0690844101408,0.129817925571,1.04328447345,0.523633837245,0.303,0.45,2,2,2,257,1
1.47882035984,0.0282460953948,0.159718024137,0.543218303379,0.437,0.45,1,0,-1,258,1
1.21489523668,0.293081171712,0.123327118118,0.608815859241,0.454,0.45,0,0,1,259,1
0.0304310471896,0.0354926961406,1.09366303978,0.549381672882,0.341,0.45,2,2,2,260,1
0.0405160025769,0.0316188568319,0.062059293302,1.04652633101,0.408,0.45,3,3,2,261,1
0.0397938584342,0.0312858046921,1.17409771868,0.201553599741,0.461,0.45,1,2,-1,262,1
0.0411921164448,0.0666298455596,0.320627953478,1.17813721736,0.458,0.45,3,3,1,263,1
1.1754991154,0.209798929481,0.330542859299,0.414291664779,0.504,0.45,0,0,1,264,1
0.0974536298861,0.0776224450274,0.546465643674,1.06615449274,0.425,0.45,3,3,2,265,1
0.687029707557,1.18210521976,0.31350888823,0.487398412894,0.475,0.45,1,1,1,266,1
1.12848909039,0.218660632053,0.379187978214,0.551140063372,0.423,0.45,0,0,2,267,1
0.0954834522826,0.0955132251359,1.09092504142,0.560271730079,0.326,0.45,2,2,2,268,1
0.063286007158,1.39328680502,0.224445734262,0.455846179388,0.326,0.45,1,1,2,269,1
0.0704063582919,0.0747627138065,1.12568756469,0.229055089035,0.383,0.45,2,2,2,270,1
1.09103657558,0.151563496037,0.296292653976,0.549974301617,0.45,0.45,0,0,1,271,1
0.0814897674018,1.05429649534,0.26034075896,0.559563424704,0.404,0.45,1,1,2,272,1
0.0793374659964,0.0700460887372,0.277592852559,1.04811672912,0.393,0.45,3,3,2,273,1
0.0754812879915,0.0317326398012,1.25095118519,0.313141661974,0.329,0.45,2,2,2,274,1
0.0774918325869,0.502893198068,0.336688085109,1.07150566914,0.417,0.45,3,3,2,275,1
1.49648161851,0.181953399486,0.27392563017,0.437133095476,0.445,0.45,0,0,2,276,1
0.0547371888508,0.086651656265,0.177678543713,1.22693894361,0.369,0.45,3,3,2,277,1
0.0523019571293,0.121648057456,1.13167857413,0.509571314275,0.344,0.45,2,2,2,278,1
0.0570295958643,1.07979000367,0.272188163832,0.545854396841,0.27,0.45,1,1,2,279,1
1.19459044099,0.14806466961,0.320071822744,0.628108338793,0.302,0.45,0,0,2,280,1
0.0386858625092,0.0904999441637,1.07605657146,0.611900500495,0.295,0.45,2,2,2,281,1
0.044668682885,1.21668547725,0.266410942086,0.574352717888,0.337,0.45,0,1,-1,282,1
0.0605309595718,1.05339830198,0.20540501501,0.511751084294,0.397,0.45,1,1,2,283,1
0.0728326044565,0.11845586605,1.30211443793,0.627046706438,0.312,0.45,2,2,2,284,1
0.0689188557866,0.0495613106576,0.516307252789,1.80943055257,0.307,0.45,3,3,2,285,1
0.0718812698126,1.24791058096,0.181475657554,0.464075583612,0.339,0.45,1,1,2,286,1
0.0653972435674,0.122239064405,0.214324635063,1.66382753228,0.333,0.45,3,3,2,287,1
1.23638768934,0.582668048387,0.0836936482926,0.397458861258,0.474,0.45,0,0,1,288,1
0.0678586044651,0.0539785157975,0.621401970025,1.11839247316,0.444,0.45,3,3,2,289,1
0.0773880518115,0.748083702622,1.09543588929,0.467766691649,0.361,0.45,2,2,2,290,1
0.0622285918079,1.0517756411,0.217006942122,0.608663627736,0.275,0.45,1,1,2,291,1
1.04537681172,0.257844261854,0.367588529327,0.672140959669,0.332,0.45,0,0,2,292,1
0.0252386114193,1.06814984218,0.539557455704,0.441347364415,0.383,0.45,1,1,2,293,1
0.0280778128795,0.0521492298887,0.392948096898,0.492549901811,0.7,0.45,2,-1,0,295,1
1.51523316619,0.0386200013481,0.321875040113,0.405884867764,0.457,0.45,0,0,1,295,1
0.0297721540992,0.0373515181841,0.175252326856,1.69226666132,0.451,0.45,3,3,1,296,1
0.0321333408888,1.08342283809,0.188282064689,0.452076471099,0.393,0.45,1,1,2,297,1
0.0321261145684,0.101242888599,1.2253212298,0.539366331233,0.417,0.45,3,2,-1,298,1
0.0483152217756,1.3897347587,0.15163340691,0.437383924381,0.39,0.45,0,1,-1,299,1
0.0444052517503,0.0758029799044,1.16573392363,0.667495124233,0.276,0.45,2,2,2,300,1
0.0332298888187,0.054930298599,0.157230442171,0.785518175618,0.7,0.45,3,-1,0,302,1
0.0408061874913,0.0548651604825,0.130977834946,1.45335736671,0.109,0.45,1,3,-1,302,1
0.0489584416826,0.0572613052115,1.0471603301,0.302139903817,0.356,0.45,2,2,2,303,1
1.1100385788,0.131743508504,0.241289896263,0.595126121878,0.432,0.45,0,0,2,304,1
0.0494702894567,0.0561572828638,1.01367949855,0.490377991195,0.269,0.45,1,2,-1,305,1
1.099569223,0.0503485823836,0.0744429599335,0.490907310691,0.375,0.45,0,0,2,306,1
0.0660816494429,0.312391521138,1.0544360105,0.549767421998,0.377,0.45,2,2,2,307,1
0.107175747209,0.0419209462757,0.0763751601211,1.62462726743,0.423,0.45,3,3,2,308,1
1.04778710381,0.0632181824649,0.129471232986,0.499734982265,0.45,0.45,0,0,1,309,1
0.0331014971334,0.0349552386628,0.188309346095,1.35463869707,0.434,0.45,3,3,2,310,1
0.0520162258055,0.315827896115,1.04194354968,0.450378103472,0.538,0.45,2,2,1,311,1
0.129241650214,1.50439224981,0.254374621336,0.538914641416,0.523,0.45,1,1,1,312,1
0.230752229258,0.185945004677,0.304872177457,1.09751909715,0.498,0.45,3,3,1,313,1
0.128215459523,1.55188675875,0.181997928167,0.38943063013,0.585,0.45,1,1,1,314,1
0.0998055566513,0.143376674946,1.21255554668,0.53822406879,0.465,0.45,2,2,1,315,1
1.77769516178,0.196097710669,0.156770479971,0.547341957781,0.417,0.45,0,0,2,316,1
0.0640939852043,0.107594323331,1.0102474864,0.61417424681,0.432,0.45,2,2,2,317,1
0.10897237163,1.00636732221,0.245178455493,0.494033017846,0.445,0.45,1,1,2,318,1
1.6274784455,0.228051270562,0.286060058967,0.481114248342,0.457,0.45,0,0,1,319,1
0.223017253795,1.14789151541,0.310870260745,0.531216312562,0.454,0.45,1,1,1,320,1
0.139683832847,0.109728144009,0.317275176823,1.2942156438,0.369,0.45,3,3,2,321,1
1.05790200755,0.760405129372,0.107146255325,0.423379978512,0.451,0.45,0,0,1,322,1
0.137349941893,0.0835898858515,0.51815726871,1.00001647467,0.4,0.45,3,3,2,323,1
0.171869028271,0.260717277935,1.2558067346,0.625331128618,0.363,0.45,2,2,2,324,1
0.239707980448,0.367749032392,0.195069065048,1.7312648907,0.45,0.45,3,3,1,325,1
0.578809403379,1.04755497456,0.181702149695,0.473279490929,0.36,0.45,1,1,2,326,1
0.100523097105,0.124283648772,1.35101067592,0.570273369604,0.324,0.45,2,2,2,327,1
1.36214287159,0.159159027581,0.116273719642,0.684665156778,0.383,0.45,0,0,2,328,1
0.07645288731,0.122384101022,1.32611893456,0.778525033847,0.425,0.45,2,2,2,329,1
0.224960947875,1.57181237686,0.199363561684,0.584113150253,0.366,0.45,1,1,2,330,1
1.85674211266,0.166186472409,0.236993284475,0.684917013265,0.453,0.45,0,0,1,331,1
0.807455251855,1.06767130088,0.142966745456,0.618590829687,0.462,0.45,1,1,1,332,1
0.0534036697551,0.0566693171214,0.242437877194,1.05044947686,0.357,0.45,3,3,2,333,1
0.0610146286995,0.113140905148,1.13082987537,0.56764599447,0.34,0.45,2,2,2,334,1
0.0604153347682,0.165067161224,0.190332341182,1.07665001574,0.417,0.45,3,3,2,335,1
1.1904476677,0.202386064452,0.120757967276,0.649576087391,0.406,0.45,0,0,2,336,1
0.0850229089074,0.140802203544,1.0159428399,0.585510144737,0.317,0.45,3,2,-1,337,1
0.232967263707,1.01161357069,0.0662845492004,0.531241763076,0.386,0.45,1,1,2,338,1
0.0723338971216,0.720070367373,1.01558657812,0.554542369789,0.385,0.45,2,2,2,339,1
0.115690092112,0.0869398854587,0.215041823063,0.67973571749,0.7,0.45,0,-1,0,341,1
0.198281178329,1.09413484445,0.228910262851,0.645847990726,0.418,0.45,1,1,2,341,1
1.04099750608,0.0968056466805,0.270275619689,0.676539854492,0.361,0.45,0,0,2,342,1
0.036521622352,0.127460839412,1.16558852101,0.557193198782,0.347,0.45,2,2,2,343,1
0.0558714165871,1.06579535414,0.32861294766,0.696713221054,0.329,0.45,1,1,2,344,1
0.0542309334259,0.0723948521986,0.319117274885,1.15822148142,0.352,0.45,3,3,2,345,1
0.048342035044,0.0694791818814,1.00477831541,0.519854310019,0.337,0.45,2,2,2,346,1
0.0466152505165,0.0412114703726,0.229117006769,1.097648176,0.373,0.45,3,3,2,347,1
1.1277541665,0.342111140985,0.200692290372,0.49615514009,0.404,0.45,0,0,2,348,1
0.0445274149875,0.119936507895,1.18804213409,0.601180313227,0.326,0.45,3,2,-1,349,1
1.00950641216,0.460019370161,0.104996269407,0.514550796524,0.542,0.45,1,0,-1,350,1
1.03480581635,0.160336354098,0.267103580177,0.623504036193,0.582,0.45,0,0,1,351,1
0.0212683993423,0.0629474049262,1.1462014064,0.504472864629,0.364,0.45,2,2,2,352,1
0.0350336509283,1.10535237344,0.190874165813,0.552998371544,0.297,0.45,1,1,2,353,1
0.0360087512277,0.191287504111,1.11941650487,0.654384920256,0.297,0.45,2,2,2,354,1
1.22330672841,0.210996798606,0.1564568483,0.591725007132,0.401,0.45,0,0,2,355,1
0.224259163973,1.02269885337,0.222233496333,0.572934454116,0.365,0.45,1,1,2,356,1
0.0979394241917,0.151267151069,0.221990094514,1.12020631917,0.337,0.45,3,3,2,357,1
0.125599646604,0.149519677545,1.09895723981,0.546361334172,0.315,0.45,2,2,2,358,1
0.121118291403,0.203653099791,0.206765692709,1.04342076171,0.376,0.45,3,3,2,359,1
1.27470445242,0.169888657976,0.0625524937492,0.615768395882,0.399,0.45,0,0,2,360,1
0.0783831560036,0.140459958606,0.0898985564344,1.00309829776,0.388,0.45,3,3,2,361,1
0.0608544627774,0.0876615048562,1.00367974125,0.657823266886,0.409,0.45,2,2,2,362,1
0.256809364724,1.01592916112,0.20039530622,0.594981856886,0.367,0.45,1,1,2,363,1
1.23271288854,0.23959731541,0.260857851012,0.650323983528,0.287,0.45,0,0,2,364,1
0.848097042079,1.03728346829,0.213474772037,0.561068063034,0.402,0.45,1,1,2,365,1
0.0475701151148,0.119411585895,1.057853913,0.639471129099,0.298,0.45,2,2,2,366,1
1.15680416172,0.194208001695,0.197710265383,0.687561662106,0.348,0.45,0,0,2,367,1
0.0541072585867,0.228384396193,1.00733117939,0.544418454707,0.42,0.45,2,2,2,368,1
0.0502031236835,0.0671613463632,0.318979862811,1.1991262496,0.395,0.45,3,3,2,369,1
1.10223030595,0.427205281359,0.110519692129,0.407369542337,0.393,0.45,1,0,-1,370,1
0.0203559633251,0.135651498868,0.407751460642,1.02457132868,0.41,0.45,3,3,2,371,1
1.02039852294,0.171807441985,0.142442160605,0.535050298469,0.404,0.45,0,0,2,372,1
0.0610218426865,0.0740006246257,0.672462521078,1.00285723194,0.502,0.45,3,3,1,373,1
0.114684234158,0.0724582259718,0.0438855316385,1.02195391271,0.471,0.45,2,3,-1,374,1
0.0272662358068,1.14092406472,0.111673786156,0.329205828107,0.422,0.45,1,1,2,375,1
0.048600235527,0.113830583394,0.128343934377,0.422380798101,0.7,0.45,0,-1,0,377,1
0.0923189710691,1.37111721999,0.131495509271,0.352913961222,0.483,0.45,1,1,1,377,1
0.0256811565841,0.114418566183,1.11242992828,0.548952079681,0.298,0.45,2,2,2,378,1
1.07823325666,0.117645347499,0.113611959844,0.474181981074,0.368,0.45,0,0,2,379,1
0.0886148958933,0.148479102508,1.13878974494,0.626955592304,0.379,0.45,2,2,2,380,1
0.0983556850922,0.114671539333,0.230685373191,1.10343124874,0.368,0.45,3,3,2,381,1
0.156080615484,1.15115783528,0.0782835286129,0.537357962004,0.339,0.45,1,1,2,382,1
0.114485548771,0.0822405278112,0.372431972196,1.17871563473,0.41,0.45,3,3,2,383,1
1.08911301355,0.203073038024,0.118067357524,0.57406165481,0.39,0.45,0,0,2,384,1
0.0844551285274,0.104233912892,0.509949430918,1.03389126568,0.419,0.45,3,3,2,385,1
0.299846179212,1.05084624593,0.0618956241359,0.475133851424,0.349,0.45,1,1,2,386,1
0.0754556036307,1.00665248611,0.0580984182721,0.537124404617,0.333,0.45,2,1,-1,387,1
1.1522279376,0.197785986403,0.2728616672,0.627563759031,0.394,0.45,0,0,2,388,1
0.0171010705369,0.105772053089,1.02205037276,0.793697216281,0.352,0.45,2,2,2,389,1
0.0280495169223,1.18247743316,0.154428986234,0.591334196454,0.412,0.45,1,1,2,390,1
1.23797010491,0.288083521458,0.264420375328,0.6576896851,0.423,0.45,0,0,2,391,1
0.0608169521747,1.02612232855,0.244971635773,0.647048829937,0.371,0.45,1,1,2,392,1
0.0636503049399,0.178101481223,0.268293346314,1.00506210325,0.389,0.45,3,3,2,393,1
1.00365512612,0.194610907917,0.160373568245,0.592783805918,0.476,0.45,0,0,1,394,1
0.0402652801468,0.155733314485,0.16201129457,1.0466246308,0.339,0.45,3,3,2,395,1
0.0696372852094,0.13579007669,1.0036821677,0.605297594564,0.339,0.45,2,2,2,396,1
0.0464407006285,0.0867799465332,0.42663834368,1.10094495912,0.372,0.45,3,3,2,397,1
1.01794789768,0.171517721072,0.125104724648,0.600819662925,0.397,0.45,0,0,2,398,1
0.104624723911,0.133978978777,1.03916361292,0.625070039408,0.405,0.45,2,2,2,399,1
0.0935353161444,0.142281760669,0.11748197028,0.575616785853,0.7,0.45,1,-1,0,401,1
0.0791669752456,0.092766690914,1.12249366944,0.626691764559,0.398,0.45,2,2,2,401,1
1.19850796058,0.186561788036,0.0932221726902,0.614603258549,0.401,0.45,0,0,2,402,1
0.043346089571,1.22793490094,0.208016531198,0.555298323082,0.372,0.45,1,1,2,403,1
0.0233989069529,0.0914523502774,0.827329763932,1.03025670099,0.398,0.45,3,3,2,404,1
0.079289379289,1.10327290625,0.0966923803035,0.525167131483,0.344,0.45,2,1,-1,405,1
0.0202765102007,0.111356485873,0.295521222467,1.09906632881,0.524,0.45,3,3,1,406,1
0.0377467913178,1.0229602994,0.121080358067,0.494351010258,0.396,0.45,1,1,2,407,1
1.01975613436,0.182800224141,0.125839504544,0.745056911489,0.364,0.45,0,0,2,408,1
0.011665796271,0.0972994070949,0.182769697194,1.12076072202,0.365,0.45,3,3,2,409,1
0.0324169460504,0.0577326351853,1.04072963169,0.571606388175,0.324,0.45,2,2,2,410,1
0.0317328734691,1.04225023084,0.205728478022,0.549799201658,0.308,0.45,1,1,2,411,1
1.17944847988,0.178580446123,0.224677516905,0.662370189157,0.31,0.45,0,0,2,412,1
0.035341916464,0.124714411515,0.187718803108,0.5321190955,0.7,0.45,1,-1,0,414,1
0.0327341476833,0.0876472628023,1.08773403225,0.538301362053,0.31,0.45,2,2,2,414,1
1.19015149461,0.031030734596,0.0718569147205,0.603539060213,0.372,0.45,0,0,2,415,1
0.000373593248046,0.0578357067737,0.149356377042,1.16703876602,0.345,0.45,3,3,2,416,1
1.221453359,0.105204524907,0.131243466756,0.451925246239,0.385,0.45,0,0,2,417,1
0.0311487057093,0.0556203762026,1.07771656973,0.482049074819,0.321,0.45,2,2,2,418,1
0.0309408838253,0.0984096774572,0.179147904402,1.05040471186,0.368,0.45,3,3,2,419,1
0.0726918163665,1.3761739095,0.182422499329,0.509494051325,0.394,0.45,1,1,2,420,1
0.0391044921112,0.0784772431876,0.277465274731,1.05420716192,0.469,0.45,3,3,1,421,1
0.0423501362055,1.05158506135,0.0759944340008,0.340990070322,0.383,0.45,1,1,2,422,1
0.0339757569164,0.086443997264,1.23074445737,0.466248926787,0.377,0.45,2,2,2,423,1
1.0537079778,0.0428234263229,0.123919939895,0.658933129661,0.333,0.45,0,0,2,424,1
0.00544269848333,0.0395152374945,1.19124195454,0.476831753049,0.305,0.45,2,2,2,425,1
0.0158420260423,1.0233962582,0.255870124982,0.493646951749,0.344,0.45,1,1,2,426,1
1.0359045379,0.180856183983,0.202627285951,0.542161499503,0.322,0.45,0,0,2,427,1
0.00334312041817,0.41187040749,0.200346482372,1.08929241118,0.376,0.45,3,3,2,428,1
0.0151919408741,0.0747715967866,1.15933138582,0.361782599958,0.39,0.45,2,2,2,429,1
0.00712566516773,0.0290210151324,0.154741849667,1.07022735261,0.39,0.45,3,3,2,430,1
1.03599447906,0.131381311895,0.0769503227416,0.473511440562,0.426,0.45,0,0,2,431,1
0.0476956279188,1.01049956199,0.15829952532,0.525965769926,0.373,0.45,1,1,2,432,1
0.0481179945809,0.100473252697,0.211534094285,1.07140544051,0.359,0.45,3,3,2,433,1
0.713800340534,0.621431361894,0.286646901676,0.620486400975,0.7,0.45,1,-1,0,435,2
0.041102864605,0.0672642906895,0.717805950478,1.04825579737,0.41,0.45,3,3,2,435,2
0.152107272529,0.17708957418,1.0706410557,0.67489180777,0.284,0.45,2,2,2,436,2
1.07997404023,0.68472763138,0.213030251999,0.609919761747,0.367,0.45,0,0,2,437,2
0.177391149842,0.126519864635,1.23833438751,0.701134854706,0.289,0.45,2,2,2,438,2
0.307916413409,0.103511289509,0.0947103566931,1.20280442425,0.219,0.45,3,3,2,439,2
1.03689160065,0.124517482462,0.246536126439,0.605830076574,0.309,0.45,0,0,2,440,2
0.355923223089,1.06203606006,0.126261823791,0.544160242968,0.327,0.45,1,1,2,441,2
0.125399058647,0.0917376529319,1.26141611784,0.550801691796,0.284,0.45,2,2,2,442,2
1.03980882715,0.110369564618,0.0574035127363,0.292805401501,0.3,0.45,1,0,-1,443,2
1.04824486039,0.27636803663,0.174112385506,0.465286328393,0.267,0.45,0,0,2,444,2
0.155859487136,0.0833343189209,0.0778288166678,1.37438723057,0.344,0.45,3,3,2,445,2
0.310155826895,1.08583231627,0.676981158396,0.292569851612,0.371,0.45,1,1,2,446,2
0.0770247120444,0.113421683379,1.016152117,0.611018667672,0.309,0.45,3,2,-1,447,2
0.0831531589752,0.364390507304,1.05443322613,0.562029732586,0.388,0.45,2,2,2,448,2
1.03436683308,0.19885918965,0.182650208369,0.606821512708,0.392,0.45,0,0,2,449,2
0.141526245971,0.0786279235259,0.097359913755,1.04057562082,0.298,0.45,3,3,2,450,2
1.04289513908,0.207239564929,0.0796441104341,0.495657685218,0.517,0.45,0,0,1,451,2
0.144874134927,0.0951305408109,0.0788875323669,0.626042215472,0.7,0.45,2,-1,0,453,2
0.0847017430577,0.0761193372426,1.02788822507,0.641821928663,0.0570000000002,0.45,1,2,-1,453,2
0.0620840921223,0.0911296806919,1.12897562106,0.547017876472,0.28,0.45,2,2,2,454,2
0.0201737441868,0.174147412554,0.152880066812,1.10513355451,0.228,0.45,3,3,2,455,2
0.0683208572695,1.07628892326,0.135440778515,0.393004087212,0.269,0.45,1,1,2,456,2
1.34629901826,0.18307690551,0.124187119041,0.522249631764,0.306,0.45,0,0,2,457,2
1.20085446749,0.126954044233,0.331285092616,0.488233641758,0.402,0.45,1,0,-1,458,2
0.0376459636872,1.00575972659,0.170563786243,0.456150913337,0.282,0.45,2,1,-1,459,2
0.0412456928568,0.0550707098299,1.01992909845,0.695772304091,0.265,0.45,3,2,-1,460,2
1.25653457047,0.172012162988,0.177225037927,0.729605917583,0.369,0.45,0,0,2,461,2
0.164167060202,0.142457364813,0.227561382812,1.34653172393,0.291,0.45,3,3,2,462,2
0.0617521850006,0.0959753852166,1.2420527905,0.53612493276,0.214,0.45,2,2,2,463,2
1.04502390996,0.242798836103,0.0781449001248,0.336755023588,0.328,0.45,0,0,2,464,2
1.00182410985,0.0319971449036,0.0541546634322,0.450716843328,0.366,0.45,1,0,-1,465,2
1.0373918494,0.280755498521,0.124297621912,0.560013745838,0.392,0.45,0,0,2,466,2
0.0659252908581,1.26768092,0.184170841354,0.565312710721,0.288,0.45,2,1,-1,467,2
1.03223720522,0.118311150125,0.255737478955,0.794521219331,0.333,0.45,1,0,-1,468,2
0.0428006680003,0.142402299663,0.3704220609,1.23216049578,0.335,0.45,3,3,2,469,2
0.0523957169699,1.10406821714,0.172672794945,0.452028127102,0.308,0.45,1,1,2,470,2
1.17964549054,0.17005123736,0.215513962499,0.629433124684,0.322,0.45,0,0,2,471,2
0.00561057105708,0.0790286115829,1.04607588682,0.781519453436,0.315,0.45,3,2,-1,472,2
0.0706447262794,0.680979300537,1.44544440894,0.599371608911,0.312,0.45,2,2,2,473,2
1.25372153605,0.140913869919,0.132981081699,0.776156486655,0.317,0.45,0,0,2,474,2
0.0503333303964,0.0865235160011,1.3872938138,0.801308141686,0.264,0.45,2,2,2,475,2
0.0274502299963,0.0421621008047,0.134081016844,1.02369880676,0.245,0.45,3,3,2,476,2
1.10818672529,0.215679978084,0.11109587523,0.50738079379,0.35,0.45,0,0,2,477,2
0.0766863918073,1.24579061537,0.196451580802,0.516260186304,0.381,0.45,1,1,2,478,2
-0.000450626155668,0.121788215529,1.84667108806,0.673950289623,0.358,0.45,2,2,2,479,2
1.10555305733,0.398536595963,0.180833775813,0.85236563474,0.421,0.45,1,0,-1,480,2
0.0120585251942,0.105928095845,0.181587160889,1.26417898537,0.439,0.45,3,3,2,481,2
0.0206221348676,1.04321770936,0.119307124539,0.518454433951,0.317,0.45,1,1,2,482,2
1.21021686586,0.052680933681,0.216683589288,0.67443530511,0.392,0.45,0,0,2,483,2
0.088595193941,1.15146916852,0.239979852845,0.419633341831,0.362,0.45,2,1,-1,484,2
0.0394198286349,0.0470239143338,0.706843715902,1.09929074033,0.336,0.45,3,3,2,485,2
0.0439156428586,0.0760604969909,1.08801643433,0.637115963628,0.34,0.45,2,2,2,486,2
1.16891116673,0.0868267079857,0.279077686968,0.750896442383,0.371,0.45,0,0,2,487,2
0.0689320583202,0.125767398884,0.331617981973,1.0781008764,0.358,0.45,3,3,2,488,2
0.170714479827,1.18717474787,0.153985917403,0.512336789547,0.336,0.45,1,1,2,489,2
0.0323339056749,0.074655199651,0.215944399463,1.21485289972,0.335,0.45,3,3,2,490,2
1.2020686184,0.12513636153,0.150228468364,0.446621913014,0.405,0.45,0,0,2,491,2
0.204745678173,1.14606627034,0.135082655164,0.474450963822,0.397,0.45,1,1,2,492,2
0.00402478214966,0.13893638085,1.02361771646,0.501059967668,0.307,0.45,2,2,2,493,2
1.06263646132,0.0585081518743,0.243231948172,0.645058270108,0.412,0.45,1,0,-1,494,2
0.036188891534,0.268729761225,1.00430033509,0.449082612144,0.424,0.45,2,2,2,495,2
0.0366603345903,0.113193169934,0.186389600678,1.12923215347,0.355,0.45,3,3,2,496,2
1.19087527242,0.37887834982,0.0996363511808,0.488176732222,0.404,0.45,0,0,2,497,2
0.0626337525219,0.138672255709,0.596621425388,1.07942625202,0.391,0.45,3,3,2,498,2
0.0399452024739,0.177786386862,1.01575685444,0.612475404496,0.37,0.45,2,2,2,499,2
1.04253429809,0.244692771896,0.149237781339,0.618923990097,0.347,0.45,0,0,2,500,2
0.000422836496856,0.112330805298,1.04389717364,0.697651873274,0.268,0.45,2,2,2,501,2
0.0695260692084,1.03325262912,0.208342393421,0.643417897418,0.281,0.45,1,1,2,502,2
1.1290625194,0.270154495453,0.16095403165,0.602938204691,0.338,0.45,0,0,2,503,2
0.0390885536371,1.24282716783,0.243787905076,0.699384645798,0.305,0.45,1,1,2,504,2
0.00629620410331,0.156698007791,0.297303944454,1.09617801536,0.306,0.45,3,3,2,505,2
0.0811079734375,1.1056514682,0.148714628532,0.519432467295,0.367,0.45,1,1,2,506,2
0.00883125461127,0.14700114175,0.1937422515,1.22464591174,0.318,0.45,3,3,2,507,2
1.29715425731,0.224868426958,0.110162217463,0.535621364072,0.351,0.45,0,0,2,508,2
0.0232633672051,0.113947397081,1.02987405305,0.696510005844,0.333,0.45,2,2,2,509,2
0.0157104434951,0.144110837191,0.151417926158,1.86046571819,0.353,0.45,3,3,2,510,2
0.00121933892103,0.178143878263,1.08301954313,0.519242932903,0.389,0.45,2,2,2,511,2
1.05459289873,0.199880979139,0.198895455175,0.719148753354,0.42,0.45,0,0,2,512,2
0.0823878711297,0.125245767719,0.428399173205,1.09253131599,0.343,0.45,3,3,2,513,2
0.0556999223823,0.166344162585,0.0428946117056,0.552192773414,0.7,0.45,1,-1,0,515,2
1.00577152764,0.809245768943,0.100839229561,0.62088669332,0.483,0.45,0,0,1,515,2
0.358002601961,1.10005405621,0.0590009246332,0.44495408908,0.468,0.45,1,1,1,516,2
0.0642114663028,0.254129432429,1.02066075652,0.649706060474,0.279,0.45,2,2,2,517,2
0.0685095094632,1.12982447235,0.140994785092,0.453814851821,0.391,0.45,1,1,2,518,2
1.00455998578,0.413369006817,0.15242081429,0.593063115266,0.355,0.45,0,0,2,519,2
0.00987050075145,0.0922795547741,0.455300574045,1.01903329458,0.407,0.45,3,3,2,520,2
0.0516265451697,0.404297488719,1.09148736875,0.734434615866,0.363,0.45,2,2,2,521,2
0.01770547435,0.151731673443,0.380877352981,1.16277157496,0.378,0.45,3,3,2,522,2
1.06271502958,0.247276328197,0.118182282156,0.661125073952,0.414,0.45,0,0,2,523,2
0.0392319108821,0.0661243729842,1.08382952953,0.696387872635,0.358,0.45,2,2,2,524,2
1.06606964756,0.0415396348003,0.139203591413,0.814564768542,0.354,0.45,0,0,2,525,2
0.358966756351,1.05471290597,0.151732714154,0.503588510287,0.481,0.45,1,1,1,526,2
0.00233776167731,0.0731811013546,0.403795887364,1.24914900468,0.335,0.45,3,3,2,527,2
0.000861312331992,1.42340134017,0.0501739492362,0.300677282556,0.7,0.45,1,-1,0,529,2
0.000861312331992,1.42340134017,0.0501739492362,0.300677282556,0.0680000000003,0.45,2,1,-1,529,2
0.0107211939062,1.22875482532,0.0908656852621,0.49243150801,0.296,0.45,1,1,2,530,2
0.0102610671179,0.138408630946,1.02115230557,0.662841671226,0.26,0.45,2,2,2,531,2
0.0119153443046,0.207473905254,0.123157704507,1.07561006875,0.323,0.45,3,3,2,532,2
1.06433525502,0.287777970162,0.143914341565,0.615454424756,0.409,0.45,0,0,2,533,2
-0.00605212370375,0.244729441806,0.716077059319,1.17862151665,0.446,0.45,2,3,-1,534,2
1.90250959313,0.272088555668,0.320977695377,0.279261619667,0.388,0.45,0,0,2,535,2
0.0501152808312,0.0296233824232,0.464464087815,1.26825333981,0.363,0.45,3,3,2,536,2
0.133406491792,1.08368857505,0.124818285529,0.365147557241,0.358,0.45,1,1,2,537,2
0.0523648287977,0.0717780741855,0.229304221698,1.11358606661,0.365,0.45,3,3,2,538,2
0.0593812877037,0.104193002054,1.04581214264,0.582576802598,0.334,0.45,2,2,2,539,2
0.0609265993667,1.048630263,0.15162462732,0.474852859546,0.285,0.45,1,1,2,540,2
1.15321482168,0.248420247004,0.298511888272,0.635621660541,0.343,0.45,0,0,2,541,2
-0.00599108266066,1.12377389106,0.308222557262,0.568635100581,0.297,0.45,1,1,2,542,2
1.11502109734,0.0980565034117,0.200593314917,0.597745800682,0.399,0.45,0,0,2,543,2
-0.00477658270414,0.0813290510795,1.02796973069,0.650567244839,0.345,0.45,2,2,2,544,2
-0.000465068792906,0.178893244771,0.159023686953,1.05324922037,0.321,0.45,3,3,2,545,2
-0.00150833370024,0.129439165317,1.0639148523,0.510483909158,0.334,0.45,2,2,2,546,2
1.44034240608,0.140786183017,0.175610435033,0.735458669189,0.404,0.45,0,0,2,547,2
-0.00103069041861,0.0761202856622,0.818230320638,1.31002868414,0.372,0.45,3,3,2,548,2
0.00833046732862,1.29528829618,0.15517993864,0.590902329303,0.303,0.45,1,1,2,549,2
0.0106138377904,0.0829596705419,0.370553825507,1.41830797342,0.31,0.45,3,3,2,550,2
1.61978819296,0.29577700948,0.240740228701,0.570594859453,0.401,0.45,0,0,2,551,2
0.00152785458513,1.01674710771,0.224016725683,0.517446835462,0.31,0.45,1,1,2,552,2
0.00805198694228,0.0811045985469,1.06173791679,0.620010648375,0.242,0.45,2,2,2,553,2
1.59504751093,0.0457193369549,0.20971287548,0.723626115034,0.306,0.45,1,0,-1,554,2
-0.00410050014237,0.0533929158109,1.18614052652,0.605044399686,0.346,0.45,3,2,-1,555,2
1.13661455525,0.114840693117,0.0234616938434,0.518851542169,0.427,0.45,0,0,2,556,2
0.00215353667413,0.262194610467,1.13001684995,0.588903995023,0.401,0.45,2,2,2,557,2
1.08099179402,0.0253879911643,0.172444671537,0.786245171892,0.393,0.45,0,0,2,558,2
0.0367071712198,0.0429744962981,0.206381087232,1.05651526753,0.32,0.45,3,3,2,559,2
0.0463710567765,0.0323180577382,1.04491187922,0.475061452203,0.343,0.45,2,2,2,560,2
0.0495221742261,1.06176305211,0.229944244801,0.454506857945,0.283,0.45,1,1,2,561,2
0.0484521222844,0.0888489046903,1.11535494576,0.515516984124,0.36,0.45,2,2,2,562,2
0.0411609049594,0.0648110679752,0.285673368679,1.18880243409,0.329,0.45,3,3,2,563,2
0.14144744512,1.01689036851,0.124565996974,0.519423778527,0.366,0.45,1,1,2,564,2
1.11509112495,0.204725170827,0.267048513525,0.712691926203,0.37,0.45,0,0,2,565,2
-0.00654051614756,1.18441875759,0.176258868467,0.548080048291,0.366,0.45,1,1,2,566,2
-0.00274899870063,0.175671086203,1.16939639471,0.609971547446,0.322,0.45,2,2,2,567,2
1.40069327617,0.129721772428,0.090212752067,0.588603524189,0.4,0.45,0,0,2,568,2
0.0613231144202,0.08198168587,1.02422919058,0.691920882452,0.301,0.45,3,2,-1,569,2
1.25036192856,0.509158650973,0.0379312908549,0.525651394812,0.375,0.45,0,0,2,570,2
0.0602261991836,0.0518350477301,1.01035397591,0.71344206677,0.329,0.45,2,2,2,571,2
0.0586836863778,0.118827089329,0.0812198655717,1.27114016203,0.372,0.45,3,3,2,572,2
0.0690817444639,1.11212912563,0.0860905350493,0.536130655618,0.363,0.45,1,1,2,573,2
0.257626694731,1.05138552477,0.103647886702,0.565222140114,0.429,0.45,0,1,-1,574,2
0.0307196864467,1.0071303689,0.0702611625302,0.628380148383,0.366,0.45,1,1,2,575,2
0.0127226820601,0.0688573716124,0.588936480089,1.05855375791,0.324,0.45,3,3,2,576,2
0.0379869287514,0.255629207437,1.03285602106,0.616522619071,0.355,0.45,2,2,2,577,2
0.0253067047927,1.00375148707,0.208089537238,0.704484665841,0.343,0.45,1,1,2,578,2
0.0198086666068,0.0986561744159,0.167294206205,1.09491571409,0.389,0.45,3,3,2,579,2
0.0303499502996,0.0839890308475,1.06926228738,0.61398753501,0.37,0.45,2,2,2,580,2
0.0271497394965,1.0535209078,0.207310843916,0.629882192649,0.356,0.45,0,1,-1,581,2
0.0599455520572,0.114473615968,0.945244994633,1.45230535016,0.415,0.45,3,3,2,582,2
1.14404196912,0.082309228301,0.0750252889612,0.725322754716,0.428,0.45,0,0,2,583,2
-0.00948714634212,0.0612713159271,1.25205963938,0.771337414483,0.352,0.45,2,2,2,584,2
0.00191503414197,0.0545823431361,0.272854187997,1.03375299243,0.325,0.45,3,3,2,585,2
0.0372520109094,0.0734914764621,1.14515768045,0.642432728233,0.398,0.45,1,2,-1,586,2
1.1268905484,0.116248620319,0.214390581697,0.672407875547,0.365,0.45,0,0,2,587,2
0.0203473249639,1.22155218859,0.181113474606,0.605266266124,0.365,0.45,1,1,2,588,2
0.00678596496254,0.16609465333,1.18461787786,0.54106453206,0.372,0.45,2,2,2,589,2
0.0146917072931,1.03406860687,0.139066430214,0.417618295513,0.377,0.45,1,1,2,590,2
0.00795381996433,0.106175162565,0.206529523427,1.28483302306,0.345,0.45,3,3,2,591,2
0.0116672446108,0.0762215841053,1.03678825857,0.478881503034,0.411,0.45,2,2,2,592,2
1.01083985328,0.187537823215,0.213595883431,0.686597544513,0.431,0.45,0,0,2,593,2
-0.0125543240869,0.127087470408,1.08532603782,0.631853746467,0.44,0.45,2,2,2,594,2
0.264099596937,0.20409203131,0.276435896258,1.00489861367,0.387,0.45,3,3,2,595,2
1.01836094029,0.178566522947,0.0874717029544,0.581716966011,0.425,0.45,0,0,2,596,2
0.164859047915,1.04347368789,0.179688547402,0.638750695773,0.36,0.45,1,1,2,597,2
1.063861315,0.166495092072,0.136985061543,0.647568186998,0.389,0.45,0,0,2,598,2
0.144723712148,0.131570548543,0.264581712384,1.21942731274,0.378,0.45,3,3,2,599,2
0.271541063267,1.01351607539,0.0922377511635,0.660377702264,0.361,0.45,1,1,2,600,2
0.0898776377999,0.12922412351,1.03833583021,0.775949908663,0.324,0.45,2,2,2,601,2
1.01969965426,0.171336350166,0.125503592184,0.767618906443,0.29,0.45,1,0,-1,602,2
1.04851380007,0.154764107494,0.161831980492,0.698648098421,0.38,0.45,0,0,2,603,2
0.201134617392,0.10738859409,0.127925365069,1.01156982016,0.347,0.45,3,3,2,604,2
0.109898503732,0.12710453977,1.00601550149,0.695482282029,0.444,0.45,2,2,2,605,2
1.02922944552,0.0979601297756,0.105216575224,0.649112012029,0.414,0.45,0,0,2,606,2
0.155465274886,0.0810488881403,0.10552627222,0.725295809255,0.7,0.45,2,-1,0,608,2
0.113594775439,0.0700967605215,1.16021317641,0.747947878097,0.0940000000003,0.45,3,2,-1,608,2
0.133455430381,1.02508679609,0.206101855288,0.550584595282,0.297,0.45,1,1,2,609,2
0.0343193033467,0.0912455214123,1.14640248977,0.635291431505,0.25,0.45,2,2,2,610,2
1.18589804793,0.739093633821,0.158936998884,0.480446307312,0.322,0.45,1,0,-1,611,2
0.177505280323,0.23793191164,0.374706310901,1.5608840985,0.41,0.45,3,3,2,612,2
1.31501519855,0.148123142393,0.133643005764,0.50379332787,0.349,0.45,0,0,2,613,2
0.192976324636,1.07000164801,0.134660228813,0.403490850724,0.38,0.45,1,1,2,614,2
1.03534472298,0.0927170452614,0.242644254976,0.582305210025,0.463,0.45,0,0,1,615,2
0.0947848249921,0.201707236938,1.08095690276,0.587990987326,0.414,0.45,2,2,2,616,2
0.0644242823636,0.0902677640463,0.171106866364,1.12870391201,0.32,0.45,3,3,2,617,2
1.03733812906,0.253096080037,0.134761317993,0.449947800511,0.344,0.45,0,0,2,618,2
0.0164819745348,0.166481673239,0.313542658217,1.06378398839,0.365,0.45,3,3,2,619,2
0.0778201372737,0.625252221607,1.0299685781,0.577737600394,0.304,0.45,2,2,2,620,2
0.0325932931836,1.08932527897,0.208295339922,0.398664736297,0.299,0.45,0,1,-1,621,2
0.157965315872,1.14816708191,0.309979771916,0.377293639693,0.512,0.45,1,1,1,622,2
0.0682603519516,0.0796171695489,1.06237490957,0.585717928117,0.352,0.45,3,2,-1,623,2
1.10446988571,0.038673549054,0.0297329910926,0.661320814957,0.301,0.45,1,0,-1,624,2
0.05165123032,0.0384210678876,0.0333775660828,0.365016562654,0.7,0.45,2,-1,0,626,2
0.0549715852961,1.05504108301,0.226632355775,0.473998053035,0.406,0.45,1,1,2,626,2
0.0578342656058,0.103854658195,1.11973639981,0.644975943159,0.305,0.45,2,2,2,627,2
0.0589039942067,0.0407147060108,0.0687541369073,1.0823095833,0.248,0.45,0,3,-1,628,2
-0.00504941492534,0.0294185096444,0.27986532643,1.26461986639,0.312,0.45,3,3,2,629,2
1.04552897112,0.170823260499,0.25946014976,0.720911261813,0.38,0.45,0,0,2,630,2
0.0129034334366,0.208110413109,0.304524458404,0.844218448147,0.7,0.45,2,-1,0,632,2
0.000456550492274,0.130329200052,0.324679777993,0.961836199613,0.7,0.45,3,-1,0,633,2
0.01447005108,1.35257456113,0.320283746165,0.791253297152,0.381,0.45,1,1,2,633,2
1.26328327229,0.135962762658,0.194738930041,0.691290738337,0.334,0.45,0,0,2,634,2
0.0733934216711,1.06889861681,0.219410779452,0.696721608584,0.304,0.45,1,1,2,635,2
0.0403857754684,0.136775788248,0.241796465499,1.43786778492,0.273,0.45,3,3,2,636,2
0.102567358513,0.200534928041,1.22807013094,0.739924995245,0.278,0.45,2,2,2,637,2
0.248571671246,1.30759376254,0.210833531608,0.548699066883,0.278,0.45,1,1,2,638,2
1.28300760752,0.211453074869,0.416107912312,0.694605843323,0.256,0.45,0,0,2,639,2
0.0505754651566,0.0957399851267,0.482556172362,1.32950184797,0.295,0.45,3,3,2,640,2
0.0583861948795,0.0801959368884,1.03506788267,0.596621127689,0.319,0.45,2,2,2,641,2
1.08087700594,0.159984825591,0.260102207853,0.636708376234,0.362,0.45,0,0,2,642,2
0.0253591758559,0.0684493033391,1.22155608455,0.625979189593,0.307,0.45,2,2,2,643,2
0.104937976871,0.0499160141496,0.207118673561,1.08779342967,0.327,0.45,3,3,2,644,2
0.835734427585,1.1094981028,0.0472261389267,0.304568797756,0.423,0.45,1,1,2,645,2
0.0393619478306,1.08386357834,0.1520059644,0.406465622955,0.359,0.45,2,1,-1,646,2
0.0486954574933,1.04625594228,0.117678082882,0.46131066674,0.354,0.45,1,1,2,647,2
0.0449632617147,0.085488498553,0.247047459476,1.11251955488,0.357,0.45,3,3,2,648,2
1.13856033931,0.0940334730353,0.205229934641,0.601321608579,0.38,0.45,0,0,2,649,2
0.0737570863513,1.08249284123,0.17612072425,0.355077615056,0.34,0.45,1,1,2,650,2
0.269664253956,0.0880632361836,0.133967566727,1.36301567484,0.453,0.45,3,3,1,651,3
0.503380057191,1.06627638606,0.128284358339,0.631985471392,0.31,0.45,0,1,-1,652,3
0.0659595862172,0.0979287183395,1.10014615412,0.590760209472,0.235,0.45,2,2,2,653,3
0.334431856684,1.19620988118,0.228759478902,0.681285810723,0.248,0.45,1,1,2,654,3
1.01498018073,0.128544312673,0.550318563141,0.746098874536,0.317,0.45,0,0,2,655,3
0.281544029228,1.08803741622,0.325736655739,0.487278983391,0.369,0.45,1,1,2,656,3
0.0257381435355,0.12087703612,1.05769095517,0.631389738944,0.285,0.45,2,2,2,657,3
1.09774410141,0.0796543263293,0.134799987855,0.580612419683,0.323,0.45,0,0,2,658,3
0.0192332049754,0.115981865121,0.221638489357,1.20670492525,0.358,0.45,3,3,2,659,3
0.05560303476,0.0958727525311,0.0992620658831,1.07473152231,0.39,0.45,2,3,-1,660,3
0.0158819633114,0.0407481306538,0.0906218301438,2.76909883332,0.503,0.45,3,3,1,661,3
0.023262842158,1.00437614974,0.319109496878,0.223793981665,0.373,0.45,1,1,2,662,3
0.0244686941551,0.0755980339751,0.90386946938,1.37241997488,0.313,0.45,3,3,2,663,3
1.0624215607,0.617190430261,0.032378082517,0.616344242775,0.38,0.45,0,0,2,664,3
0.0789291469421,0.105308847332,1.02037506158,0.689860763617,0.276,0.45,2,2,2,665,3
0.0751270566677,1.14624302751,0.139310723887,0.687056860294,0.27,0.45,1,1,2,666,3
0.0587947106425,1.02880356065,0.141299243771,0.608019444849,0.282,0.45,2,1,-1,667,3
1.02288622941,0.0316091538941,0.175906144138,0.798887478117,0.32,0.45,0,0,2,668,3
0.282758987113,0.237823300024,0.355383470761,0.80701489585,0.7,0.45,1,-1,0,670,3
0.241771419805,0.204276429909,0.36599150182,0.786946204596,0.7,0.45,0,-1,0,671,3
0.179401070246,0.152113104107,0.319771384018,0.73816310958,0.7,0.45,3,-1,0,672,3
0.176690225054,0.139085522916,0.311868527577,0.802684017964,0.7,0.45,1,-1,0,673,3
0.229863836751,0.183765424418,0.338257357021,0.879732813147,0.7,0.45,3,-1,0,674,3
0.282934158589,0.22047440069,0.356498343387,0.837409088839,0.7,0.45,2,-1,0,675,3
0.272194755778,0.203814218602,0.359056566277,0.783374827966,0.7,0.45,3,-1,0,676,3
0.295981744974,0.231299912044,0.359338923617,0.801464776779,0.7,0.45,1,-1,0,677,3
0.344122728987,0.242984625376,0.387361105581,0.923378265625,0.7,0.45,2,-1,0,678,3
0.287509940691,0.214132442252,0.364854024102,0.828975509259,0.7,0.45,0,-1,0,679,3
0.312277385251,0.236918488415,0.359979564697,0.816979421271,0.7,0.45,2,-1,0,680,3
0.320515683646,0.241604456125,0.359443659023,0.856532557158,0.7,0.45,1,-1,0,681,3
0.0106585334506,0.0489204230838,0.0444707246354,0.00487132967483,0.7,0.45,0,-1,0,682,3
-0.00352287850567,0.0336447553892,0.0316795733933,0.023923442837,0.7,0.45,3,-1,0,683,3
-0.00287221780703,0.0269030724838,0.031297713017,0.0171220052583,0.7,0.45,2,-1,0,684,3
-0.00874076979259,0.0252534499906,0.0312553853039,0.00809273742055,0.7,0.45,3,-1,0,685,3
-0.00506989725343,0.023644124047,0.0312506193097,0.0034107320675,0.7,0.45,0,-1,0,686,3
-0.00313301937163,0.0234608243858,0.0312500699199,-0.000408378426141,0.7,0.45,1,-1,0,687,3
-0.0068186008349,0.0234401267063,0.0312500078741,0.00325641771171,0.7,0.45,3,-1,0,688,3
-0.0105922447323,0.0206100969302,0.0312500008975,0.000659066269778,0.7,0.45,1,-1,0,689,3
-0.0139518713478,0.0167987192187,0.00745915696259,-0.00589979633323,0.7,0.45,0,-1,0,690,3
-0.0188076331847,0.0166626409871,0.000801350891106,-0.0120135072558,0.7,0.45,2,-1,0,691,3
-0.0201450332896,0.0149347194979,0.00405017491523,-0.0047074243056,0.7,0.45,0,-1,0,692,3
-0.017050977935,0.0135264992517,0.00335261869325,-0.00941711184324,0.7,0.45,1,-1,0,693,3
-0.0236729578208,0.0116241049142,0.00097991643907,-0.012046307005,0.7,0.45,2,-1,0,694,3
-0.0199825034489,0.0099113461168,0.000111390158032,-0.014825415648,0.7,0.45,1,-1,0,695,3
-0.0188799102892,0.0122893926139,1.25726965374e-05,-0.0126058442391,0.7,0.45,3,-1,0,696,3
-0.0193497566714,0.0113878992365,1.43262472141e-06,-0.0187455576913,0.7,0.45,0,-1,0,697,3
-0.0275173900121,0.0177311121767,1.62202826393e-07,-0.0215805773442,0.7,0.45,3,-1,0,698,3
-0.0242078633911,0.0118444055192,1.83087928152e-08,-0.0260630440765,0.7,0.45,2,-1,0,699,3
-0.0286044365273,0.00861944240629,2.09985084876e-09,-0.0238238406162,0.7,0.45,3,-1,0,700,3
-0.0318711616776,0.0088903895251,2.370607044e-10,-0.0295964127996,0.7,0.45,1,-1,0,701,3
-0.03059004197,0.00861777541656,2.68429722894e-11,-0.0214664241878,0.7,0.45,2,-1,0,702,3
-0.0376779382087,0.00809610071877,3.03301828097e-12,-0.0270857296552,0.7,0.45,0,-1,0,703,3
-0.0356576515692,0.00851726026957,3.47499806708e-13,-0.0307969983478,0.7,0.45,1,-1,0,704,3
-0.0391231508309,0.00375564877134,4.20774526333e-14,-0.0272858976944,0.7,0.45,0,-1,0,705,3
-0.0444089374453,0.00728718918087,7.54951656745e-15,-0.023856220878,0.7,0.45,2,-1,0,706,3
-0.0442413555485,0.00775310135194,4.4408920985e-15,-0.0234848931543,0.7,0.45,1,-1,0,707,3
-0.0418147003486,0.00361325917591,3.5527136788e-15,-0.0234429156908,0.7,0.45,3,-1,0,708,3
-0.037925204988,0.00278825634105,3.5527136788e-15,-0.0234381094103,0.7,0.45,2,-1,0,709,3
-0.042758078521,0.0020923505179,3.5527136788e-15,-0.0287591745951,0.7,0.45,3,-1,0,710,3
-0.0418923164026,0.00191376236467,3.5527136788e-15,-0.0288305274653,0.7,0.45,0,-1,0,711,3
-0.0432487484007,0.00876924555935,3.5527136788e-15,-0.0354418936328,0.7,0.45,3,-1,0,712,3
-0.0465622063335,0.00250418166962,3.5527136788e-15,-0.037539437807,0.7,0.45,1,-1,0,713,3
-0.0466469234142,0.000664533900523,3.5527136788e-15,-0.0336078954637,0.7,0.45,0,-1,0,714,3
-0.0455477619051,0.000882762229188,3.5527136788e-15,-0.0384837688323,0.7,0.45,2,-1,0,715,3
-0.0436577721726,0.000811149762669,3.5527136788e-15,-0.0309604253535,0.7,0.45,0,-1,0,716,3
-0.0451502567996,0.00103877669543,3.5527136788e-15,-0.031865126812,0.7,0.45,1,-1,0,717,3
-0.0423888676278,0.0145917879878,3.5527136788e-15,-0.0377016116776,0.7,0.45,2,-1,0,718,3
-0.0434368683143,0.0197629227843,3.5527136788e-15,-0.0368643630714,0.7,0.45,3,-1,0,719,3
-0.0429759708091,0.0183881480179,3.5527136788e-15,-0.0385138041807,0.7,0.45,0,-1,0,720,3
-0.0491916791792,0.00786317632992,3.5527136788e-15,-0.0395447638307,0.7,0.45,3,-1,0,721,3
-0.0489761596605,-0.000997591827499,3.5527136788e-15,-0.0452456463357,0.7,0.45,2,-1,0,722,3
-0.0498737493266,-0.00118331968179,3.5527136788e-15,-0.0399519358353,0.7,0.45,1,-1,0,723,3
-0.0472001506006,0.000946442413573,3.5527136788e-15,-0.0406216674297,0.7,0.45,3,-1,0,724,3
-0.056410159006,0.00100548025327,3.5527136788e-15,-0.0399546841672,0.7,0.45,1,-1,0,725,3
-0.0556306064575,-0.00187185949763,3.33066907388e-15,-0.0373863363504,0.7,0.45,0,-1,0,726,3
-0.0539988231182,0.0105074503542,1.44328993201e-15,-0.0398593010677,0.7,0.45,2,-1,0,727,3
-0.0595760342491,0.0137909196816,1.22124532709e-15,-0.0381627333871,0.7,0.45,1,-1,0,728,3
-0.0533573594796,0.0154162090948,1.22124532709e-15,-0.0374570025043,0.7,0.45,2,-1,0,729,3
-0.0478260285951,0.0156015257549,1.22124532709e-15,-0.0409444261971,0.7,0.45,0,-1,0,730,3
-0.0444989640088,0.0136054971021,1.22124532709e-15,-0.0413388665877,0.7,0.45,1,-1,0,731,3
-0.051597179038,0.0153973268866,1.22124532709e-15,-0.0329340999565,0.7,0.45,3,-1,0,732,3
0.160418877657,0.0970993818258,0.301841902968,-0.0256070566033,0.7,0.45,0,-1,0,733,3
0.412499725286,0.338223741361,0.303792410853,0.239376547646,0.7,0.45,3,-1,0,734,3
-0.0345117232891,0.108704182687,0.28879970187,0.579349588462,0.7,0.45,2,-1,0,735,3
0.0700014520012,0.130957814193,0.104568640188,1.28513416549,0.508,0.45,3,3,1,735,3
-0.0222689918109,0.0290879005634,1.1964270828,0.190280370367,0.346,0.45,0,2,-1,736,3
-0.0212994942111,0.0782644929416,1.00143411091,0.230879411065,0.226,0.45,1,2,-1,737,3
-0.0430957659151,0.0862228594507,1.22084980803,0.47624807874,0.245,0.45,2,2,2,738,3
1.27558781504,0.0874691546789,0.0670840670167,0.666163571605,0.371,0.45,0,0,2,739,3
-0.0308790531071,0.111648747555,1.00761375453,0.330408920336,0.269,0.45,2,2,2,740,3
-0.0363872416629,1.24121212127,0.175523015316,0.384768847647,0.244,0.45,1,1,2,741,3
-0.023191594587,1.21947276461,0.255219196073,0.41104232395,0.334,0.45,0,1,-1,742,3
0.0345981028113,0.0749061242486,0.389480113036,1.06966303903,0.349,0.45,3,3,2,743,3
0.174817549221,1.0253191584,0.468285230376,0.287181562264,0.29,0.45,1,1,2,744,3
-0.00344078861065,0.215055555918,1.09917723028,0.590671773821,0.23,0.45,3,2,-1,745,3
-0.00507464801924,1.08118206806,0.0685526397654,0.584887423857,0.289,0.45,2,1,-1,746,3
-0.0115909586639,0.0593628009953,0.534978295426,1.01873458646,0.427,0.45,3,3,2,747,3
0.106450687929,0.285217460182,1.07421648744,0.280834858953,0.429,0.45,2,2,2,748,3
0.0274645977063,1.06066776306,0.853490974914,0.132760094994,0.383,0.45,1,1,2,749,3
1.08898094055,0.229484357445,0.0880745238196,0.569354404843,0.331,0.45,0,0,2,750,3
0.0119865860941,0.168633596843,1.05163573564,0.578674531778,0.29,0.45,2,2,2,751,3
1.11174057859,0.539589406795,0.16998015139,0.563345810407,0.377,0.45,0,0,2,752,3
0.686340313479,1.05560325529,0.0709140130671,0.415671057923,0.415,0.45,1,1,2,753,3
-0.0347676938596,0.028560625053,1.03482674838,0.506298546083,0.319,0.45,2,2,2,754,3
-0.025383526648,0.0554952604593,0.220945765693,1.45148964619,0.331,0.45,3,3,2,755,3
-0.0313516579697,1.03525360935,0.076136005549,0.386174894246,0.346,0.45,1,1,2,756,3
-0.0305795757853,0.0691578039995,0.133262819581,1.13002243258,0.354,0.45,3,3,2,757,3
1.18430949047,0.20382551923,0.135054336535,0.63957644995,0.382,0.45,0,0,2,758,3
-0.0379965386266,0.0738163741586,1.02106636074,1.09142783518,0.378,0.45,3,3,2,759,3
-0.0261587338564,0.0917408532918,1.08762737343,0.670171329985,0.359,0.45,2,2,2,760,3
-0.0273215310075,1.03913853321,0.185455923826,0.80331335232,0.268,0.45,1,1,2,761,3
1.12547748934,0.163079015872,0.22680028956,0.699022300786,0.307,0.45,0,0,2,762,3
0.0289367833871,0.0805952636793,1.01614207725,0.594452358722,0.274,0.45,2,2,2,763,3
0.0298403814348,1.03498345244,0.134784422649,0.500017971781,0.296,0.45,0,1,-1,764,3
1.20487877836,0.0891425394918,0.190596553846,0.804623268666,0.373,0.45,1,0,-1,765,3
-0.0101979400704,0.148316904148,0.59158408679,1.01812748452,0.33,0.45,3,3,2,766,3
1.27544471702,0.373254943748,0.160844195489,0.536774405227,0.364,0.45,0,0,2,767,3
0.0825288317213,0.128635310273,0.264859814156,1.1167366568,0.363,0.45,3,3,2,768,3
0.0502532795763,1.11781762607,0.143541423021,0.525174474519,0.289,0.45,1,1,2,769,3
0.0136721701597,0.116179162122,1.22731226136,0.765729195536,0.277,0.45,2,2,2,770,3
0.00795110936135,0.141327586064,0.17385220625,1.0652242785,0.344,0.45,3,3,2,771,3
0.0178997502862,0.151683274423,1.11189347496,0.908292228294,0.326,0.45,2,2,2,772,3
1.03269788593,0.114724432347,0.0296544158097,0.677574493616,0.364,0.45,0,0,2,773,3
0.0338842796065,1.22708423412,0.35712667719,0.636452195034,0.364,0.45,1,1,2,774,3
0.0226631254828,0.0937971443113,1.04721548632,0.761031191764,0.298,0.45,2,2,2,775,3
0.388904326061,1.0158758265,0.10840572613,0.523954534163,0.396,0.45,1,1,2,776,3
1.33244381511,0.131632806525,0.225201336087,0.818975712694,0.3,0.45,0,0,2,777,3
-0.0273233563383,0.16696150003,0.407081137826,1.2359026787,0.339,0.45,3,3,2,778,3
-0.0209951682052,1.01674927155,0.138212373806,0.583276563804,0.286,0.45,1,1,2,779,3
-0.0211924009998,0.0756673557026,0.654430639833,1.23257950908,0.358,0.45,3,3,2,780,3
1.07427664022,0.223605486688,0.100800381215,0.766351037221,0.38,0.45,0,0,2,781,3
0.00951116699654,0.117828192383,1.02078350698,0.610511934339,0.334,0.45,2,2,2,782,3
0.0106274754464,0.145241534926,0.138044910586,1.22163504365,0.336,0.45,3,3,2,783,3
0.0173537617266,0.108444115549,1.19210230755,0.652415152164,0.327,0.45,2,2,2,784,3
0.0137701537209,1.17496786784,0.173268573123,0.760105648053,0.287,0.45,1,1,2,785,3
1.14513225022,0.130798508941,0.172695762103,0.631059026869,0.282,0.45,0,0,2,786,3
-0.00784383053733,1.22240551166,0.183093511985,0.518860046356,0.318,0.45,1,1,2,787,3
-0.0025883154072,0.0701820625033,1.09164176021,0.610817676587,0.281,0.45,2,2,2,788,3
-0.00378305650038,0.0359096877625,0.224806414588,1.00567895858,0.271,0.45,0,3,-1,789,3
-0.0388424781856,0.0277853557231,1.16561516771,0.357479418301,0.299,0.45,3,2,-1,790,3
1.19306978818,0.232813759527,0.0171611806195,0.351931558825,0.397,0.45,0,0,2,791,3
-0.0239635189594,0.035771870372,1.00603352995,0.877201380343,0.312,0.45,2,2,2,792,3
-0.0154487949114,0.141678547006,0.088626105961,1.32875994936,0.356,0.45,3,3,2,793,3
-0.00902155306085,1.03557507744,0.0953412126232,0.396541695233,0.338,0.45,1,1,2,794,3
-0.0104798620164,0.0854960339938,0.1727314184,1.25947342729,0.384,0.45,3,3,2,795,3
-0.00751769079151,1.01279769172,0.131488034012,0.469843492164,0.415,0.45,1,1,2,796,3
-0.00702249871447,0.0993974791444,1.00062433692,0.573082406981,0.335,0.45,2,2,2,797,3
-0.00542748875723,0.22403644045,0.266143042914,1.01558357378,0.127,0.45,0,3,-1,798,3
-0.0214363482998,0.169703950498,1.00702350111,0.865455565041,0.282,0.45,2,2,2,799,3
-0.0268428739624,1.0606743382,0.179246818919,0.224991454669,0.347,0.45,1,1,2,800,3
1.11777357641,0.564389191413,0.0522400814958,0.611288135081,0.432,0.45,0,0,2,801,3
-0.0238154112434,1.19304364847,0.0306080010362,0.420949976998,0.356,0.45,1,1,2,802,3
-0.0151857540469,0.0546959749399,0.130651533938,1.53007673616,0.38,0.45,3,3,2,803,3
1.01199669432,0.115610479058,0.0992048241082,0.569162124495,0.363,0.45,0,0,2,804,3
-0.000817287975471,0.0831879642572,0.225304924965,1.11657766603,0.417,0.45,3,3,2,805,3
0.00101844345661,0.0684648281018,1.07050208508,1.06673261084,0.392,0.45,2,2,2,806,3
0.00272164190429,0.12444008355,0.117255964499,1.03052346245,0.386,0.45,3,3,2,807,3
1.05564029057,0.0721644214422,0.0249308126268,0.694918490093,0.346,0.45,0,0,2,808,3
-0.0223200967249,0.0608283861419,1.09721066103,0.851188771226,0.311,0.45,2,2,2,809,3
-0.0196711245025,1.18939823387,0.00820958831186,0.619097503002,0.274,0.45,1,1,2,810,3
1.04110293935,0.0657114959861,0.0461376996545,0.749422603501,0.401,0.45,0,0,2,811,3
0.0342097053478,1.03696034199,0.064237605368,0.785550559233,0.306,0.45,1,1,2,812,3
0.0329000740787,0.095501842359,0.1261877851,1.00156545451,0.216,0.45,2,3,-1,813,3
0.0310730630657,0.0532070826615,0.139675975654,1.27931362545,0.32,0.45,3,3,2,814,3
0.0330591668301,0.0687345171846,0.024844582444,0.598486128013,0.7,0.45,1,-1,0,816,3
0.0326346675933,0.0838946485775,0.568832498076,1.00175380379,0.288,0.45,3,3,2,816,3
0.0303978738819,0.215114144036,0.456940366467,1.00856322143,0.282,0.45,2,3,-1,817,3
1.14231779021,0.716019640025,0.0498927206933,0.555828348649,0.376,0.45,0,0,2,818,3
0.0321035652429,0.0365546364783,0.784532286815,1.000945178,0.239,0.45,3,3,2,819,3
0.533963087145,0.0316235396824,0.0661367058205,1.04541107725,0.381,0.45,1,3,-1,820,3
0.0291269057242,0.0716653670506,1.02776002099,0.512383551444,0.601,0.45,2,2,1,821,3
1.02255165077,0.0215073940052,0.0671608556759,0.836899117242,0.381,0.45,0,0,2,822,3
-0.0235948540687,1.10214392008,0.123581857231,0.866500396781,0.406,0.45,1,1,2,823,3
1.24776488378,0.0466598590624,0.107886586569,0.484268470018,0.378,0.45,0,0,2,824,3
0.0293822614854,0.100871424307,1.07518143564,0.600976469116,0.301,0.45,2,2,2,825,3
0.0361572119625,1.01450841041,0.0999366484915,0.750099776754,0.265,0.45,1,1,2,826,3
0.102066210874,0.185983002334,0.367537099785,1.05195999756,0.423,0.45,3,3,2,827,3
0.0784289289759,0.345543787554,1.02669634898,0.733328944132,0.374,0.45,2,2,2,828,3
0.181920271409,0.129113549549,0.310563102458,1.00714926829,0.33,0.45,3,3,2,829,3
1.16633998658,0.183458347704,0.260039029742,0.819580285903,0.429,0.45,0,0,2,830,3
0.118223126,0.115490524637,0.498800022918,1.04265653304,0.3,0.45,3,3,2,831,3
0.191700584091,0.0756695376885,0.140299456495,1.00374250754,0.0960000000004,0.45,2,3,-1,832,3
0.0372685867145,1.11619717196,0.0909586275278,0.690651681316,0.237,0.45,1,1,2,833,3
1.03408620897,0.177064385402,0.148848679366,0.863707743172,0.25,0.45,0,0,2,834,3
0.119789643077,0.101765996538,1.05398274391,1.03205982936,0.289,0.45,2,2,2,835,3
1.161140379,0.191610856126,0.119071772331,0.770004502085,0.37,0.45,0,0,2,836,3
0.152949312751,1.06106542545,0.169409186981,0.790135360961,0.337,0.45,1,1,2,837,3
0.0250108614606,0.111978098133,0.484055442999,1.02516797039,0.254,0.45,3,3,2,838,3
1.11667305983,0.499560437401,0.0835521343212,0.548561542111,0.415,0.45,0,0,2,839,3
0.128758375079,0.0700298695983,1.20780304963,0.893666136999,0.409,0.45,3,2,-1,840,3
0.361156709732,1.07240276446,0.0443170392632,0.595350735316,0.451,0.45,1,1,1,841,3
0.0103292030813,0.0721846089944,0.047837429045,1.00165516779,0.142,0.45,2,3,-1,842,3
0.037081621709,0.0319682552803,1.1576047659,0.42969843161,0.356,0.45,3,2,-1,843,3
0.135508367598,0.0597687191804,0.0801351529401,1.01096405369,0.189,0.45,0,3,-1,844,3
0.100788372288,1.26143153968,0.217897129601,0.967254160544,0.294,0.45,1,1,2,845,3
0.0240603762539,0.0839041941519,1.08293068705,1.14197848044,0.236,0.45,2,3,-1,846,3
1.22575596685,0.108112458571,0.171760260786,0.858097216077,0.316,0.45,0,0,2,847,3
0.0547101559623,1.03339212953,0.0396306957568,0.398846560662,0.313,0.45,2,1,-1,848,3
0.0629168971385,1.0100060608,0.0816866223178,0.519027117038,0.32,0.45,1,1,2,849,3
1.0396910386,0.110071811431,0.105612833956,0.94607611302,0.319,0.45,0,0,2,850,3
0.0604811610228,0.0898534735086,0.876030402115,1.03183595696,0.283,0.45,3,3,2,851,3
0.102508448054,1.06672964508,0.189883567244,0.484732621255,0.335,0.45,1,1,2,852,3
0.0834602886138,0.180134340156,0.353380590285,1.0230559898,0.261,0.45,3,3,2,853,3
0.0899267599434,0.119464298198,1.14801679247,0.895980682396,0.319,0.45,2,2,2,854,3
0.0985602062901,0.0926616695977,0.200282796085,1.41796760275,0.345,0.45,3,3,2,855,3
0.154806610217,1.12773452673,0.0728087965804,0.347854522396,0.422,0.45,0,1,-1,856,3
0.160664868875,1.13824812264,0.121907567758,0.634198146341,0.34,0.45,1,1,2,857,3
0.0382109654738,0.108033091698,0.266910167279,1.02365679937,0.224,0.45,2,3,-1,858,3
0.0380751196703,0.10010555051,0.149695116925,1.07192564994,0.279,0.45,1,3,-1,859,3
1.16802642346,0.165689860994,0.116281427243,0.533437608906,0.257,0.45,0,0,2,860,3
0.0165644545682,0.228708148653,1.00950403775,0.36912552461,0.368,0.45,2,2,2,861,3
0.0249190495867,1.02991660124,0.120472758944,0.447665201867,0.271,0.45,0,1,-1,862,3
0.0339708516649,0.0201763041569,1.12032236066,0.642475247978,0.228,0.45,3,2,-1,863,3
0.0580076040845,0.0243560481879,1.13525779951,0.851143254081,0.408,0.45,2,2,2,864,3
0.0339178645536,0.0219459549063,0.0702385640164,1.13610250695,0.414,0.45,3,3,2,865,3
1.17069881861,0.0403201188246,0.719841168278,0.602477224436,0.463,0.45,1,0,-1,866,3
-0.021892808494,0.127694456046,0.145269007703,0.553242707823,0.7,0.45,3,-1,0,868,3
0.679307014378,0.793582807519,0.507242276635,1.41060768925,0.0110000000004,0.45,0,3,-1,868,4
0.137456156062,0.111954516596,0.0927991293511,1.00987483269,0.422,0.45,3,3,2,869,4
0.225218231275,1.08185049868,0.114992532865,0.657916702626,0.27,0.45,1,1,2,870,4
0.242581330768,1.01176755852,0.218685678809,0.794230293465,0.275,0.45,2,1,-1,871,4
0.00744332544481,1.02108004223,0.197307503339,0.715921042083,0.23,0.45,1,1,2,872,4
0.0442536282825,0.177387112144,0.220156487567,1.08930725388,0.302,0.45,3,3,2,873,4
0.0298798228025,0.0810684905416,1.11170865937,0.429724546478,0.28,0.45,2,2,2,874,4
1.25018633921,0.16680674299,0.178188040464,0.7253676588,0.361,0.45,0,0,2,875,4
-0.0320265307765,0.0753429170158,1.17392433258,0.565452082548,0.246,0.45,2,2,2,876,4
-0.00739918313255,0.218461279975,1.14139369466,0.721563621544,0.313,0.45,3,2,-1,877,4
0.0982757168093,0.0365330088092,0.0314219844806,1.00477840615,0.0430000000005,0.45,0,3,-1,878,4
-0.00141017532674,0.0398347392772,0.0628209908627,1.00847359909,0.0500000000005,0.45,1,3,-1,879,4
1.05521210242,0.0165748624351,0.0964966693559,0.684054569577,0.415,0.45,0,0,2,880,4
-0.00648099185285,1.03962737621,0.0690424904015,0.0609367992252,0.394,0.45,1,1,2,881,4
-0.0227623466643,0.0466080576792,1.04011070069,0.675974941205,0.293,0.45,3,2,-1,882,4
0.0328496934747,0.0528447517281,1.07882309964,0.991245063765,0.284,0.45,2,2,2,883,4
0.0417163917046,0.109839429116,0.145002712114,1.08754138566,0.347,0.45,3,3,2,884,4
0.0319834505641,0.189200564392,0.16235061813,0.506317659939,0.7,0.45,1,-1,0,886,4
0.0307216440333,1.23846172924,0.161258798553,0.401399472705,0.0640000000005,0.45,2,1,-1,886,4
1.03151010769,0.331872643922,0.136158531658,0.588811069034,0.334,0.45,1,0,-1,887,4
1.07561479346,0.221567559371,0.177628977259,0.929575492838,0.303,0.45,0,0,2,888,4
0.145861832286,0.198219085817,0.346306163821,1.00464728179,0.317,0.45,3,3,2,889,4
1.0588378211,0.292364512526,0.156390622685,0.691309358672,0.357,0.45,0,0,2,890,4
0.0799702244092,0.155142069078,1.14197561815,0.825781056096,0.231,0.45,2,2,2,891,4
0.109892596748,1.02026429185,0.222885312292,0.613389431542,0.222,0.45,0,1,-1,892,4
0.113555599567,0.00806460316828,1.15891474837,0.899715385865,0.234,0.45,2,2,2,893,4
0.242217445651,0.141831701079,0.286074024819,1.06565421814,0.303,0.45,3,3,2,894,4
0.209086707905,1.10768607422,0.108421396305,0.591413976561,0.354,0.45,1,1,2,895,4
0.0791536695226,0.141828939264,1.2700672362,0.901573992852,0.325,0.45,3,2,-1,896,4
0.147620267922,0.0116472549137,0.0314154831449,1.00230498048,0.0520000000005,0.45,2,3,-1,897,4
1.11354087072,0.171373748035,0.148710870942,0.702736196253,0.264,0.45,1,0,-1,898,4
0.910996925317,0.1145508061,0.343425598735,1.32455039512,0.358,0.45,2,3,-1,899,4
0.00829949107413,1.07624419929,0.415752169246,0.473027875199,0.354,0.45,0,1,-1,900,4
0.0387525344013,0.0113321842862,0.536558139713,1.19933383187,0.332,0.45,3,3,2,901,4
1.14534100125,0.261386821486,0.198339617844,0.462959833334,0.433,0.45,0,0,2,902,4
0.523709106037,1.04375735505,0.147365285095,0.428223153128,0.434,0.45,1,1,2,903,4
1.1856544526,0.0594819026454,0.19595590168,0.671739104051,0.41,0.45,0,0,2,904,4
-0.0217200258486,0.0509766160096,1.02874639978,0.331464810175,0.361,0.45,2,2,2,905,4
-0.0188178178545,0.0949415515786,0.106460593677,1.15820481058,0.307,0.45,3,3,2,906,4
-0.0161665983983,1.08937165154,0.157819069476,0.502361351512,0.292,0.45,1,1,2,907,4
-0.0085171291136,0.0424746463725,0.495675701729,1.02900596128,0.331,0.45,3,3,2,908,4
-0.0108552296835,0.100668721493,1.17562807783,0.927743305511,0.315,0.45,2,2,2,909,4
-0.00485279738716,1.12538749099,0.277291475154,0.687114394465,0.295,0.45,1,1,2,910,4
1.12124581709,0.209199794082,0.417704808361,0.782880024826,0.266,0.45,0,0,2,911,4
0.0215420666232,1.0537799324,0.392980283981,0.724403808305,0.281,0.45,1,1,2,912,4
0.0191367068989,0.0666817337646,1.18286599225,0.734646868312,0.281,0.45,2,2,2,913,4
1.101357536,0.0435600957412,0.218335272122,0.677715535635,0.342,0.45,0,0,2,914,4
0.0465696171107,0.0767316753833,0.281426829522,1.22792596313,0.312,0.45,3,3,2,915,4
1.00126557422,0.699141863274,0.153082989766,0.473048992394,0.414,0.45,0,0,2,916,4
0.0667203166944,0.0258501360673,1.00494195965,0.751801895454,0.32,0.45,3,2,-1,917,4
0.0993510754093,0.0710183804617,1.11416207772,0.801838149827,0.391,0.45,2,2,2,918,4
0.0754413177584,1.08522494841,0.184447823968,0.631150469233,0.319,0.45,1,1,2,919,4
0.0552255453025,0.115209052903,0.310236499949,1.24305122288,0.307,0.45,3,3,2,920,4
0.0831728336504,1.01822798297,0.145807882172,0.487503231673,0.337,0.45,1,1,2,921,4
0.0447773386813,0.0366043196847,1.27756053775,0.74678086932,0.288,0.45,2,2,2,922,4
1.10335464717,0.149718862248,0.121405876524,0.618020230586,0.348,0.45,0,0,2,923,4
0.0295915730575,0.0238052136349,1.047309715,0.757142340137,0.254,0.45,2,2,2,924,4
0.0381357099162,0.113632676408,0.165529156827,1.1254447517,0.406,0.45,3,3,2,925,4
1.07639265172,0.0612265774097,0.0650688314141,0.660015252352,0.312,0.45,0,0,2,926,4
0.0296609851611,1.09744214983,0.180447682501,0.688611126333,0.296,0.45,1,1,2,927,4
1.04604344853,0.189375453866,0.400405633252,0.632443467266,0.468,0.45,0,0,1,928,4
-0.0113682980929,1.04210026167,0.53262841544,0.263915226683,0.503,0.45,1,1,1,929,4
-0.0121490308213,0.0306233063608,0.200232718069,1.34845119472,0.344,0.45,3,3,2,930,4
-0.00328007134568,0.075577945809,1.18840384185,0.729756144364,0.313,0.45,2,2,2,931,4
-0.00538093200311,0.145792853762,0.411348574395,1.14053093104,0.35,0.45,3,3,2,932,4
-0.00449008441141,1.12705862868,0.109298684866,0.428903251133,0.359,0.45,1,1,2,933,4
0.0018312749858,0.78483552031,1.00586926676,0.38465196248,0.366,0.45,2,2,2,934,4
1.07964131142,0.018362734268,0.148229654833,0.787991953499,0.414,0.45,0,0,2,935,4
0.0104522192773,0.0417558402759,0.177878844743,1.19048543412,0.329,0.45,3,3,2,936,4
1.05550967617,0.173885842425,0.281870917054,0.768093273922,0.433,0.45,0,0,2,937,4
-0.0189393931274,0.0319543468223,1.16853617629,0.6443481601,0.305,0.45,2,2,2,938,4
-0.0140688364353,1.05836052923,0.274703603951,0.726854276695,0.257,0.45,1,1,2,939,4
1.42528657388,0.0929408899626,0.217449971377,0.823799978306,0.273,0.45,0,0,2,940,4
0.007817690445,0.0260583610451,0.146763905589,1.15919270949,0.252,0.45,3,3,2,941,4
0.0128270071983,0.0219435533749,1.05584910608,0.613979879464,0.292,0.45,2,2,2,942,4
0.0144001910328,1.01232747619,0.305018025561,0.479291378578,0.293,0.45,1,1,2,943,4
0.160017964038,0.0608462761427,1.08309472599,0.415037669847,0.391,0.45,2,2,2,944,4
0.01219557072,0.0338021268072,0.117014309288,1.08314128128,0.292,0.45,3,3,2,945,4
0.0170382122003,1.10417130758,0.132661148112,0.351973548097,0.315,0.45,1,1,2,946,4
0.0176910437138,0.0760225947646,0.283814417085,1.35132133909,0.326,0.45,3,3,2,947,4
1.01878713661,0.0683545505742,0.111235185596,0.637169635344,0.416,0.45,0,0,2,948,4
0.0118556179116,0.0463861473443,1.32311659403,0.723303456328,0.273,0.45,2,2,2,949,4
1.06498182579,0.148077339871,0.164559370641,0.569341083574,0.408,0.45,0,0,2,950,4
0.020677399903,1.06567014992,0.252146950015,0.413479449603,0.379,0.45,1,1,2,951,4
1.29349730837,0.0788727103754,0.184932943124,0.575545922167,0.36,0.45,0,0,2,952,4
0.014825245431,0.0470643980766,0.542020278138,1.19176536938,0.345,0.45,3,3,2,953,4
0.0632534918491,0.0594551605094,1.10564939751,0.658057205447,0.359,0.45,2,2,2,954,4
0.022029780213,1.00971111688,0.186207139913,0.701979267967,0.376,0.45,1,1,2,955,4
0.0224084808602,0.101249775185,0.119709493406,1.0758005338,0.34,0.45,3,3,2,956,4
0.0271009442911,1.23169563923,0.0284594617749,0.557190745614,0.356,0.45,1,1,2,957,4
0.024994404059,0.0928297062461,1.16406931959,0.634565174836,0.296,0.45,2,2,2,958,4
1.10094437902,0.387242199688,0.137380416335,0.517305477732,0.374,0.45,0,0,2,959,4
0.0689615779301,1.05387944759,0.672323432815,0.25295826661,0.332,0.45,2,1,-1,960,4
-0.00641512170667,0.0867135103388,0.962349596035,1.01924267797,0.308000000001,0.45,3,3,2,961,4
1.0333297111,0.223281174544,0.13169435985,0.674989243749,0.356000000001,0.45,0,0,2,962,4
0.0869822489287,1.11318231244,0.208517942424,0.525635060716,0.293000000001,0.45,1,1,2,963,4
1.33249254989,0.145351341001,0.0927857886879,0.456301963819,0.360000000001,0.45,0,0,2,964,4
-0.0203061702246,0.0941982432696,1.25191371849,0.797602050111,0.394000000001,0.45,2,2,2,965,4
0.118625595933,0.135080289709,0.0570344425611,1.13939165682,0.340000000001,0.45,3,3,2,966,4
0.00776669385221,1.08280254755,0.122184663025,0.307174487935,0.373000000001,0.45,1,1,2,967,4
-0.00472478698089,0.148660215607,1.04481656267,0.513632045743,0.286000000001,0.45,2,2,2,968,4
-0.00110225594373,1.12811187217,0.220575872336,0.559974619309,0.328000000001,0.45,1,1,2,969,4
-0.00386371172889,0.107298165352,0.724320424582,1.08373704435,0.355000000001,0.45,3,3,2,970,4
1.18679028996,0.18358045415,0.0389965930784,0.435871812497,0.359000000001,0.45,0,0,2,971,4
-0.0271707540656,0.159350582112,0.385849974191,1.19335255251,0.378000000001,0.45,3,3,2,972,4
0.0230292838592,0.113377671602,1.05875842075,0.664605870637,0.339000000001,0.45,2,2,2,973,4
1.14900356919,0.14746915835,0.323607261141,0.847362084578,0.369000000001,0.45,0,0,2,974,4
-0.013530038224,1.07113264758,0.291620145549,0.611844599617,0.280000000001,0.45,1,1,2,975,4
1.06148281296,0.157328549729,0.335583304579,0.880518469353,0.367000000001,0.45,0,0,2,976,4
0.0184795536394,1.15769483394,0.224318088174,0.406839460144,0.356000000001,0.45,1,1,2,977,4
0.0221512716201,0.0582041108081,1.17528649754,0.705384088529,0.313000000001,0.45,3,2,-1,978,4
0.0202586789316,0.178031514319,1.15851225285,0.576470333258,0.342000000001,0.45,2,2,2,979,4
0.0112187092877,1.01320568696,0.229122102601,0.74289598451,0.273000000001,0.45,1,1,2,980,4
0.120447536173,0.0840177751576,1.1070274665,0.700501867305,0.340000000001,0.45,2,2,2,981,4
0.0206367693938,0.156414708936,0.393103573617,1.03530800935,0.362000000001,0.45,3,3,2,982,4
1.11481549832,0.15105250766,0.0882384125156,0.591188230071,0.359000000001,0.45,0,0,2,983,4
-0.000589843288724,0.12217721216,0.186566441828,1.04219820098,0.360000000001,0.45,3,3,2,984,4
0.015970290151,1.15340334995,0.397961741104,0.534075034795,0.323000000001,0.45,1,1,2,985,4
1.08589357372,0.164472313968,0.124672052555,0.720255401552,0.353000000001,0.45,0,0,2,986,4
0.0360391770712,0.0840088560026,1.04044929017,1.04566559588,0.342000000001,0.45,2,3,-1,987,4
1.02796620952,0.540336972573,0.123643993283,0.624910917469,0.360000000001,0.45,0,0,2,988,4
0.00222548270795,0.0738714251445,1.35912373421,0.708877186711,0.242000000001,0.45,2,2,2,989,4
0.0147530227546,1.17694748649,0.362599920202,0.0133740031474,0.338000000001,0.45,1,1,2,990,4
0.0195727661843,0.0808973280215,0.89080847477,1.17996592686,0.329000000001,0.45,3,3,2,991,4
0.0786700146425,0.154817765521,1.12117911841,0.773681664707,0.344000000001,0.45,2,2,2,992,4
0.0160029433765,0.0836855919791,0.22146489729,1.11191138742,0.382000000001,0.45,3,3,2,993,4
0.479026677125,1.05335760851,0.13399752856,0.475716620193,0.446000000001,0.45,1,1,2,994,4
1.68137163675,0.144562715828,0.143403999731,0.547448248461,0.323000000001,0.45,0,0,2,995,4
-0.0174321157102,1.14073800794,0.190095589022,0.54209870049,0.288000000001,0.45,1,1,2,996,4
-0.0133349015148,0.138188128865,1.0310951595,0.630931004001,0.254000000001,0.45,2,2,2,997,4
1.25828711836,0.0248254718354,0.10977806683,0.580059859729,0.375000000001,0.45,0,0,2,998,4
-0.00789071764107,0.0220474749063,1.0971272594,0.565122626414,0.261000000001,0.45,3,2,-1,999,4
-0.00423847994256,1.00172687545,0.0156476940708,0.374216290223,0.351000000001,0.45,0,1,-1,1000,4
0.00840660871412,0.0314111766018,0.0156267535186,1.09653216015,0.434000000001,0.45,3,3,2,1001,4
0.0133297559796,0.030760434359,1.07096880792,0.849870787569,0.421000000001,0.45,2,2,2,1002,4
0.0184095862549,1.08624928537,0.194022249775,0.653209651714,0.288000000001,0.45,1,1,2,1003,4
0.0180740177722,0.126759919349,0.158220639126,1.23942726833,0.298000000001,0.45,3,3,2,1004,4
0.0201657331268,1.17539055656,0.145483706328,0.509779902514,0.293000000001,0.45,1,1,2,1005,4
0.0234917064065,0.288564758591,1.07202430774,0.81994076902,0.288000000001,0.45,2,2,2,1006,4
0.0167503032535,0.148124737888,0.197376164002,1.00840459475,0.308000000001,0.45,3,3,2,1007,4
1.02309531654,0.503656536299,0.172422971059,0.476707314556,0.401000000001,0.45,0,0,2,1008,4
0.08510537969,1.10057363644,0.179883150098,0.531810162766,0.315000000001,0.45,1,1,2,1009,4
1.0059128776,0.14294063242,0.18702221992,0.617661479969,0.390000000001,0.45,0,0,2,1010,4
-3.69090079921e-05,1.0149725431,0.24230664565,0.57332543089,0.281000000001,0.45,2,1,-1,1011,4
1.04828681063,0.74536985939,0.193035062952,0.545897865005,0.377000000001,0.45,0,0,2,1012,4
0.00621668583589,0.0398947787227,1.0884145429,0.559080665579,0.262000000001,0.45,2,2,2,1013,4
0.00560712222698,1.12599199479,0.197056234867,0.595420920446,0.239000000001,0.45,1,1,2,1014,4
0.0124002794507,0.234588521576,0.229206611218,1.19371656399,0.315000000001,0.45,3,3,2,1015,4
0.012990821228,1.05418291524,0.211043299602,0.563410416092,0.350000000001,0.45,1,1,2,1016,4
0.0129293414035,0.14971037616,1.1419918317,0.614198139064,0.276000000001,0.45,2,2,2,1017,4
0.0152071135544,0.190507863726,0.120562719712,1.20564029178,0.346000000001,0.45,3,3,2,1018,4
1.22370850766,0.339603526734,0.116621736436,0.494977184507,0.404000000001,0.45,0,0,2,1019,4
0.0799986373068,1.0607328795,0.146390181051,0.377866433794,0.305000000001,0.45,1,1,2,1020,4
1.11155835106,0.724058641129,0.136680513388,0.360800284956,0.454000000001,0.45,0,0,1,1021,4
0.0465074502319,0.042710254913,0.949955847816,1.08595534467,0.347000000001,0.45,3,3,2,1022,4
0.0894052775532,0.477457525035,1.08426689524,0.599057607392,0.357000000001,0.45,2,2,2,1023,4
1.0767621502,0.0916575233749,0.167513104727,0.799922303176,0.378000000001,0.45,0,0,2,1024,4
0.0163052514782,1.07862377822,0.297805859983,0.599856804675,0.292000000001,0.45,1,1,2,1025,4
0.0227683643429,0.0777410174677,1.04234727824,0.766198303252,0.232000000001,0.45,2,2,2,1026,4
0.0216089524223,0.0409711479886,0.170827560983,1.08857010858,0.217000000001,0.45,3,3,2,1027,4
0.030180366042,0.698822818028,1.173606426,0.37575414704,0.342000000001,0.45,2,2,2,1028,4
0.0171757521064,1.06341325116,0.185800708147,0.628448552971,0.277000000001,0.45,1,1,2,1029,4
0.0577650417489,0.119803132224,1.09423771014,0.737950190095,0.378000000001,0.45,3,2,-1,1030,4
1.05775190596,0.137238619775,0.125110919917,0.777569235284,0.372000000001,0.45,0,0,2,1031,4
0.0381792018344,0.0911624163875,0.22595965892,1.14304405786,0.332000000001,0.45,2,3,-1,1032,4
1.02626516036,0.777603122432,0.238087194379,0.373794982982,0.417000000001,0.45,0,0,2,1033,4
0.0300366831601,0.0620942036299,0.166058702356,1.07392663762,0.347000000001,0.45,3,3,2,1034,4
0.0302655190429,1.12878350082,0.0534156707496,0.261195685834,0.314000000001,0.45,1,1,2,1035,4
1.00531531715,0.148593702991,0.0759735024026,0.512460923742,0.360000000001,0.45,0,0,2,1036,4
-0.026064211525,1.01683289609,0.109806498682,0.42161475077,0.338000000001,0.45,1,1,2,1037,4
-0.0116166588782,0.101341262936,1.02758496269,0.501653892048,0.345000000001,0.45,2,2,2,1038,4
-0.0109672852343,0.0925014298764,0.130009581536,1.22159811825,0.273000000001,0.45,3,3,2,1039,4
-0.000941449998528,1.05327172485,0.132355788182,0.34345323616,0.382000000001,0.45,1,1,2,1040,4
-0.00246616661979,0.0773414509402,0.136056028984,1.15119177328,0.358000000001,0.45,3,3,2,1041,4
-0.00406000069228,0.0966114792187,1.08944300509,0.436054797753,0.372000000001,0.45,2,2,2,1042,4
0.000812421447065,1.06663007388,0.163882238982,0.307893481246,0.343000000001,0.45,1,1,2,1043,4
1.00571536838,0.233091130338,0.200671024053,0.439467640563,0.333000000001,0.45,0,0,2,1044,4
-0.0104601731226,0.0912670953838,1.09541752347,0.559064425902,0.372000000001,0.45,2,2,2,1045,4
1.13306135104,0.223455347396,0.179933599,0.567933289647,0.413000000001,0.45,0,0,2,1046,4
-0.0131465251872,0.0906390785819,0.399708466402,1.1948106374,0.371000000001,0.45,3,3,2,1047,4
0.113461786765,1.01538821941,0.148208844914,0.416601063672,0.382000000001,0.45,0,1,-1,1048,4
0.024482268016,1.20698765883,0.32811617162,0.336786350085,0.355000000001,0.45,1,1,2,1049,4
-0.000750099001039,1.11726582931,0.143767686511,0.483907478329,0.284000000001,0.45,2,1,-1,1050,4
-0.00352266539683,0.0953133759183,0.13408860084,1.02892126499,0.293000000001,0.45,3,3,2,1051,4
0.00126995797357,0.184914582225,1.20193454316,0.482700527609,0.349000000001,0.45,2,2,2,1052,4
0.0046110221164,1.07778923244,0.141576194038,0.480336226813,0.321000000001,0.45,1,1,2,1053,4
0.00399177215752,0.134861526584,0.24292157011,1.03253050803,0.330000000001,0.45,3,3,2,1054,4
1.01173681981,0.186095788754,0.0861959728579,0.483985366836,0.395000000001,0.45,0,0,2,1055,4
-0.0396688132901,0.116594914963,1.05289463974,0.543314446799,0.292000000001,0.45,2,2,2,1056,4
1.12390765645,0.389927246441,0.151058429289,0.548494040938,0.393000000001,0.45,0,0,2,1057,4
-0.0291196289246,0.0673245341993,0.213742143201,1.05600839842,0.296000000001,0.45,3,3,2,1058,4
0.43930414421,1.08949130258,0.19521849001,0.355242872767,0.346000000001,0.45,1,1,2,1059,4
1.11865923294,0.12871939017,0.229979135453,0.69616050179,0.341000000001,0.45,0,0,2,1060,4
0.0372162476981,0.0673045515399,0.195660836785,1.1339095892,0.282000000001,0.45,3,3,2,1061,4
0.0444179032356,1.06181074753,0.188179665709,0.542323231672,0.337000000001,0.45,1,1,2,1062,4
0.0370605532973,0.047810315541,1.09922929041,0.522537445726,0.254000000001,0.45,2,2,2,1063,4
0.0449496599827,1.22621784193,0.25576256739,0.485822051328,0.408000000001,0.45,1,1,2,1064,4
0.0347446804263,0.117688148161,0.233142683923,1.22431584732,0.375000000001,0.45,3,3,2,1065,4
0.0357424545494,0.157850449354,1.27382832956,0.763950019514,0.336000000001,0.45,2,2,2,1066,4
0.0357113230603,0.164334324101,0.326752807626,1.2087669614,0.369000000001,0.45,3,3,2,1067,4
1.02533636047,0.196203112885,0.103064186107,0.696266141684,0.397000000001,0.45,0,0,2,1068,4
0.0526878195234,0.181275097399,1.22446174361,0.679577172129,0.319000000001,0.45,2,2,2,1069,4
0.034510877394,1.01071350548,0.153859549593,0.567209030343,0.280000000001,0.45,0,1,-1,1070,4
0.0394309861152,1.11238736409,0.420114764585,0.00523232401488,0.409000000001,0.45,1,1,2,1071,4
0.0421049717655,1.25644417737,0.21969281496,0.450443420676,0.342000000001,0.45,0,1,-1,1072,4
-0.00547867063739,1.05288593925,0.194746175569,0.454584090748,0.334000000001,0.45,1,1,2,1073,4
0.00242666589524,0.0940485694053,1.19629635467,0.63083183643,0.233000000001,0.45,2,2,2,1074,4
0.00182244837238,0.0465553197769,0.26886125882,1.09761595861,0.239000000001,0.45,3,3,2,1075,4
0.0386153101954,0.166596383024,1.00606712447,0.535516470061,0.341000000001,0.45,1,2,-1,1076,4
0.165002980049,0.21030019228,0.15620710801,1.21699852767,0.375000000001,0.45,3,3,2,1077,4
-0.00420072070451,0.184585215984,0.0418784095009,1.05447298915,0.373000000001,0.45,2,3,-1,1078,4
-0.00479789325209,1.01267735731,0.191129887636,0.473984670828,0.331000000001,0.45,1,1,2,1079,4
1.07551469814,0.173204001974,0.281559567402,0.597156825478,0.313000000001,0.45,0,0,2,1080,4
0.00137186925032,0.393919162337,1.11946128677,0.531108295077,0.301000000001,0.45,2,2,2,1081,4
0.00199627251431,1.04695364112,0.244764023841,0.564877729085,0.351000000001,0.45,0,1,-1,1082,4
-0.0067565358132,0.0401918496596,1.07553651741,0.553791839379,0.395000000001,0.45,3,2,-1,1083,4
1.17174342852,0.0361845323205,0.0156905002561,0.442766912051,0.398000000001,0.45,0,0,2,1084,4
-0.0115059713933,0.0505656621036,1.02170112793,0.317062289289,0.520000000001,0.45,2,2,1,1085,5
1.13470220914,0.256542799502,0.0734389418672,0.35495302906,0.357000000001,0.45,0,0,2,1086,5
0.0431514460341,1.1803224521,0.194986817308,0.330283192691,0.393000000001,0.45,1,1,2,1087,5
0.0169639536213,0.171778146534,0.216195843118,1.07645403377,0.312000000001,0.45,3,3,2,1088,5
1.17114055052,0.0884529401169,0.0893023619093,0.595636281331,0.370000000001,0.45,0,0,2,1089,5
-0.0143114412654,0.0326772654531,1.04480709334,0.566108011569,0.289000000001,0.45,3,2,-1,1090,5
0.144031368475,1.05230460591,0.125480082479,0.548399292172,0.258000000001,0.45,1,1,2,1091,5
0.0237814152723,0.0604334285797,1.21890347621,0.738080257279,0.238000000001,0.45,2,2,2,1092,5
0.0179001755223,1.03410509958,0.484934978764,0.30461324662,0.321000000001,0.45,1,1,2,1093,5
1.14103700939,0.0942963988216,0.0309813431273,0.500519334047,0.354000000001,0.45,0,0,2,1094,5
0.094937687614,0.0551356130886,1.12169277501,0.555308440341,0.306000000001,0.45,2,2,2,1095,5
0.11587086799,0.0938727647872,0.113408507063,1.07363156767,0.309000000001,0.45,3,3,2,1096,5
0.0569784236988,0.448353736848,1.09603188219,0.319507613953,0.363000000001,0.45,2,2,2,1097,5
1.04088887722,0.102284143723,0.165206502422,0.624346495173,0.321000000001,0.45,0,0,2,1098,5
0.0402549831182,0.0748562608683,0.697987792433,1.17949915838,0.346000000001,0.45,3,3,2,1099,5
0.228490744153,1.04264912404,0.116936793189,0.540521197264,0.303000000001,0.45,1,1,2,1100,5
1.25885005633,0.046650552661,0.331211286706,0.6891462194,0.330000000001,0.45,0,0,2,1101,5
0.492063231688,1.06300479584,0.121946062731,0.456486169999,0.382000000001,0.45,1,1,2,1102,5
0.00496664368547,0.119287972998,1.25434957847,0.55043420581,0.251000000001,0.45,3,2,-1,1103,5
1.02523615441,0.152637739095,0.143553039887,0.877760124307,0.280000000001,0.45,2,0,-1,1104,5
0.042151716258,1.17296484527,0.21515166257,0.729737032943,0.295000000001,0.45,1,1,2,1105,5
0.0466520942473,0.0959368519018,1.09835076063,0.885086330392,0.367000000001,0.45,2,2,2,1106,5
0.110177464303,0.063959296057,1.03980211809,0.607225545342,0.352000000001,0.45,3,2,-1,1107,5
1.05039634926,0.0933268011285,0.11377787702,0.859501804882,0.337000000001,0.45,0,0,2,1108,5
0.0793017085396,0.0931014680624,1.19110486995,0.783444673684,0.293000000001,0.45,2,2,2,1109,5
0.0463422000684,0.0806709429682,1.0159908174,0.73372550514,0.349000000001,0.45,3,2,-1,1110,5
0.070076717432,1.0275996208,0.199601623001,0.546529190728,0.435000000001,0.45,1,1,2,1111,5
1.0710346323,0.174680793129,0.17640633547,0.534755603196,0.391000000001,0.45,0,0,2,1112,5
0.0314477931667,1.07648520803,0.200845520989,0.224240871233,0.340000000001,0.45,1,1,2,1113,5
-0.0056291534193,0.0821246920722,0.643417325893,1.31007554096,0.345000000001,0.45,3,3,2,1114,5
0.0578818995034,0.106541501226,0.157427717495,1.00182282328,0.126000000001,0.45,0,3,-1,1115,5
0.00915026416216,0.146105202897,1.0933431292,0.350606882919,0.329000000001,0.45,2,2,2,1116,5
1.10721729996,0.475499203213,0.0462818466385,0.513634166958,0.463000000001,0.45,0,0,1,1117,5
0.0366579035061,0.0552179594456,0.548173605072,1.31305475562,0.371000000001,0.45,3,3,2,1118,5
0.0791355504372,0.603212077539,1.00588239154,0.69790850074,0.285000000001,0.45,2,2,2,1119,5
0.0430191786585,1.07661723837,0.348337132082,0.829298510368,0.273000000001,0.45,1,1,2,1120,5
0.0377525406721,0.0956309190091,1.17534217548,0.733695923927,0.310000000001,0.45,2,2,2,1121,5
0.0435930850274,0.0673600324096,0.546493482202,1.10604014495,0.357000000001,0.45,3,3,2,1122,5
0.0431911230319,1.02419073149,0.182509836295,0.503935206273,0.376000000001,0.45,1,1,2,1123,5
1.19280317088,0.0926902301037,0.269565429543,0.741105909452,0.369000000001,0.45,0,0,2,1124,5
-0.00688188373589,1.1208440004,0.195639863515,0.479581271775,0.409000000001,0.45,1,1,2,1125,5
0.000212038439086,0.057198649665,0.0863725736917,1.35999334826,0.356000000001,0.45,3,3,2,1126,5
1.07144733402,0.0622476227813,0.145401194398,0.471266815373,0.423000000001,0.45,0,0,2,1127,5
-0.0236759910545,0.065183081732,0.875349084042,1.08018887109,0.412000000001,0.45,3,3,2,1128,5
0.00082727462419,0.0780102182219,1.02130560023,0.643907662716,0.418000000001,0.45,2,2,2,1129,5
-0.0124214252793,0.0479841811667,0.0264832453818,0.301333091654,0.7,0.45,1,-1,0,1131,5
-0.00962251883297,0.111531391152,1.11636925174,0.488036845257,0.374000000001,0.45,2,2,2,1131,5
1.06696291794,0.100970121832,0.159731493812,0.735243115611,0.361000000001,0.45,0,0,2,1132,5
-0.0240013303335,0.0466153383487,1.19973295095,0.617869273317,0.281000000001,0.45,2,2,2,1133,5
-0.0130102548504,0.0465265962116,0.068028001337,1.30828897718,0.322000000001,0.45,3,3,2,1134,5
1.04626248511,0.0915888330724,0.081436620663,0.469484002671,0.370000000001,0.45,0,0,2,1135,5
0.122728309008,1.03437427965,0.133290078356,0.562982969293,0.380000000001,0.45,1,1,2,1136,5
1.08800358824,0.0449457343127,0.166973807205,0.67794187947,0.377000000001,0.45,0,0,2,1137,5
-0.00943381632216,0.0819374111352,0.45985217146,1.12295145176,0.348000000001,0.45,3,3,2,1138,5
0.0481286914711,1.05057902367,0.202215113439,0.614008434999,0.304000000001,0.45,1,1,2,1139,5
0.0444391943316,0.10968764934,0.158037365035,1.13092431165,0.355000000001,0.45,3,3,2,1140,5
0.00936274445015,0.138404820296,1.02462129482,0.595105937314,0.347000000001,0.45,2,2,2,1141,5
-0.00370820139814,1.1426821378,0.215014766004,0.551297151324,0.338000000001,0.45,1,1,2,1142,5
-0.00951184056917,0.0950442772241,1.10525826519,0.761422718301,0.339000000001,0.45,2,2,2,1143,5
1.13518427608,0.265841321082,0.279265452606,0.700976384395,0.372000000001,0.45,0,0,2,1144,5
-0.0332663575591,0.145105604963,1.14141499228,0.756491021972,0.287000000001,0.45,2,2,2,1145,5
-0.0313897348552,0.220939142213,0.251843632907,1.15249262509,0.318000000001,0.45,3,3,2,1146,5
1.05141972712,0.770000947822,0.120332167715,0.344955360713,0.400000000001,0.45,0,0,2,1147,5
0.159629313812,1.06489436287,0.054758039013,0.298622823661,0.344000000001,0.45,1,1,2,1148,5
-0.00543464018975,0.0712393132416,0.242849612014,1.11601777021,0.354000000001,0.45,3,3,2,1149,5
0.00513395375195,1.02715152428,0.130884245744,0.484400290879,0.377000000001,0.45,1,1,2,1150,5
1.06611551965,0.152693706972,0.0871603474069,0.602691604925,0.361000000001,0.45,0,0,2,1151,5
0.0310534424539,0.103615855172,1.00534909059,0.684792415048,0.307000000001,0.45,2,2,2,1152,5
0.043310192292,1.26968778321,0.222293810389,0.541243955585,0.370000000001,0.45,1,1,2,1153,5
0.0433691905235,0.187078512645,1.24414674727,0.650943429579,0.307000000001,0.45,2,2,2,1154,5
1.10237204491,0.616767333989,0.0074588196206,0.40056470587,0.404000000001,0.45,0,0,2,1155,5
0.0502353966141,0.100286797555,0.0955746992053,1.11084026717,0.335000000001,0.45,3,3,2,1156,5
0.0665864255464,0.0560450515228,1.187229924,0.572832620222,0.276000000001,0.45,2,2,2,1157,5
1.00847112541,0.539030501874,0.199225048487,0.508390003113,0.352000000001,0.45,0,0,2,1158,5
-0.0237302367513,0.14173526064,0.254570699853,1.34334545712,0.324000000001,0.45,3,3,2,1159,5
-0.000697921455672,1.08103583854,0.0757117941659,0.414559859597,0.272000000001,0.45,1,1,2,1160,5
-0.00689757442679,0.0343117420217,1.01512621604,0.638376321613,0.295000000001,0.45,3,2,-1,1161,5
1.08296059541,0.0197059143164,0.185851153471,0.421793749985,0.331000000001,0.45,0,0,2,1162,5
0.01312699899,0.0228484605336,1.00660844181,0.697701623839,0.280000000001,0.45,1,2,-1,1163,5
-0.00394422913794,1.00237086924,0.211057175278,0.552633099746,0.391000000001,0.45,0,1,-1,1164,5
0.03851303427,0.0358520184337,1.1111837777,0.612280525249,0.264000000001,0.45,2,2,2,1165,5
0.0513268665346,0.0748647597387,0.0724328368316,3.18559942834,0.343000000001,0.45,3,3,2,1166,5
0.0448755562772,0.501788318218,1.32985027516,0.481730436197,0.364000000001,0.45,2,2,2,1167,5
0.0398475093548,1.09742002812,0.256187171296,0.631618790253,0.307000000001,0.45,1,1,2,1168,5
0.0316025968763,0.154168255231,1.04196571505,0.791102227364,0.345000000001,0.45,2,2,2,1169,5
0.0297546962,0.0203188926438,0.435008945864,1.07242210074,0.326000000001,0.45,3,3,2,1170,5
