force_0,force_1,force_2,force_3,rt,rt_threshold,target_finger,selected_finger,score,trial,run
0.22965662661,0.209670480602,0.262857371639,1.06549982116,0.688,0.45,3,3,1,0,0
1.47511884025,0.175303088416,0.115199216035,0.512573120138,0.552,0.45,1,0,-1,1,0
1.79235194644,0.0605919511991,0.113215631232,0.464350898726,0.662,0.45,0,0,1,2,0
0.210156077303,0.0562669714603,1.09314816793,0.411006159829,0.518,0.45,2,2,1,3,0
1.00694634045,0.0665481061931,0.153611088054,0.483631233531,0.506,0.45,1,0,-1,4,0
0.0784125275182,0.0135776281323,1.36722141876,0.279342484148,0.587,0.45,2,2,1,5,0
1.17905451807,0.0495627630878,0.25973539433,0.464825356814,0.553,0.45,0,0,1,6,0
0.0673758352665,0.0331534694901,0.339614141014,1.0197066789,0.527,0.45,3,3,1,7,0
0.179603701511,1.11408592515,0.210752029493,0.251921320758,0.536,0.45,2,1,-1,8,0
0.121852399188,0.596467286475,1.00043801633,0.289271055909,0.025,0.45,3,2,-1,9,0
1.17574544952,0.00782870776198,0.123671808455,0.262727481468,0.392,0.45,0,0,2,10,0
1.21650022343,0.0494749162545,0.179020917731,0.370606891908,0.486,0.45,1,0,-1,11,0
0.0793288699841,0.0235065833621,1.43554421634,0.420719883184,0.42,0.45,3,2,-1,12,0
1.17270001466,0.0945934330662,0.130862931139,0.489349490054,0.549,0.45,0,0,1,13,0
0.0636181419852,1.82853580121,0.0606050263195,0.242464108561,0.495,0.45,1,1,1,14,0
0.0625342091481,0.0148198512668,1.21497707357,0.380975599717,0.452,0.45,2,2,1,15,0
0.133644060201,1.11872402486,0.035337617151,0.218444762162,0.663,0.45,1,1,1,16,0
1.71743875983,0.00907296093261,0.0317609845502,0.59964980844,0.56,0.45,0,0,1,17,0
0.0247783684265,1.59666369825,0.0313212634445,0.32803710859,0.516,0.45,2,1,-1,18,0
2.69917077845,0.255378760889,0.0197581145804,0.290521570883,0.629,0.45,0,0,1,19,0
0.00759409705906,0.00294838309651,0.0296077005152,2.02731826529,0.54,0.45,3,3,1,20,0
0.084024534934,0.0108236127969,0.866459308118,0.436542484867,0.7,0.45,2,-1,0,22,0
0.077616103902,0.0105408783192,1.22221972318,0.538007791413,0.044,0.45,3,2,-1,22,0
1.07738085718,0.00788945911528,0.0390699535719,0.209391961202,0.53,0.45,1,0,-1,23,0
0.0200934815482,0.00781802888745,0.0390630155792,0.391215268704,0.7,0.45,3,-1,0,25,0
0.0185054309453,0.00781710427561,0.0390629293258,1.23257235071,0.07,0.45,0,3,-1,25,0
0.0119397834674,0.0489689481597,1.18557597426,0.306874412777,0.63,0.45,2,2,1,26,0
0.0180576630958,1.03870518016,0.0258012505547,0.251446197324,0.494,0.45,1,1,1,27,0
1.31181319859,0.00441867499234,0.0236903637911,0.587263999365,0.307,0.45,0,0,2,28,0
0.0752652335045,1.65429687577,0.0234493512478,0.281970631957,0.617,0.45,1,1,1,29,0
0.0333772114088,0.0157883044324,1.69875831762,0.628092572051,0.411,0.45,2,2,2,30,0
1.4501504854,0.015626626577,0.0234939646266,0.464977823781,0.507,0.45,0,0,1,31,0
0.0391115303992,0.0510880377346,0.0234401931301,0.823391271487,0.7,0.45,3,-1,0,33,0
0.039103410291,0.0408801855922,0.023439939266,1.33186890644,0.041,0.45,2,3,-1,33,0
0.0390630856418,0.0157834607421,0.0160436526078,1.82365166896,0.677,0.45,3,3,1,34,0
1.45434719685,0.0156489213022,0.0148714421799,0.40708904409,0.627,0.45,1,0,-1,35,0
0.601044534662,1.22890700635,0.0150734259885,0.319183907643,0.03,0.45,3,1,-1,36,0
0.00949821463182,0.0859944548606,1.09451234398,0.323731116224,0.651,0.45,2,2,1,37,0
0.0252016725694,1.89204797477,0.0222665925233,0.159055971899,0.42,0.45,1,1,2,38,0
2.56329401389,-0.00766122791688,0.0157094555287,0.296860532089,0.293,0.45,0,0,2,39,0
0.0234375939031,0.00438198030844,1.58002519239,0.389400228855,0.621,0.45,2,2,1,40,0
2.26007613894,0.66240191962,0.0315022365757,0.361721359836,0.527,0.45,0,0,1,41,0
0.0781271056272,2.28393804734,0.0312548961839,0.390145135882,0.57,0.45,1,1,1,42,0
0.0166847966321,-0.00779485555243,0.0312503931556,0.932281939822,0.7,0.45,3,-1,0,44,0
0.016586764138,-0.00779739243386,0.0270193153165,1.16643274348,0.043,0.45,0,3,-1,44,0
0.0625003798633,-0.00781221250902,0.000542284135978,1.32184228083,0.546,0.45,3,3,1,45,0
1.20573657833,0.193214552797,-0.0151631146483,0.303050429871,0.6,0.45,1,0,-1,46,0
0.445408186848,2.50100568382,-0.000892296865669,0.413769527089,0.072,0.45,2,1,-1,47,0
0.0164002545515,2.08802139146e-05,0.015068969576,1.18206070623,0.513,0.45,3,3,1,48,0
0.0156947198595,1.72438692281e-06,1.18608262937,0.213932732237,0.615,0.45,2,2,1,49,0
0.0156376326956,1.72730495609,0.0160274455192,0.158986222112,0.487,0.45,1,1,1,50,0
1.4831331386,0.401772385093,0.0156496416655,0.149682982304,0.491,0.45,0,0,1,51,0
0.0468978683688,1.54364795426,0.0156282855661,0.137896602577,0.46,0.45,2,1,-1,52,0
0.0302211706561,0.055298255343,1.51751203647,0.114225078707,0.023,0.45,0,2,-1,53,0
0.0160383153931,2.44493068367,0.0236051911788,0.0834957926584,0.59,0.45,1,1,1,54,0
0.0108923965172,0.00784058137308,0.0341506658766,1.27192653896,0.658,0.45,3,3,1,55,0
0.0256546256319,0.00781400136164,0.164322530363,0.0624326265279,0.7,0.45,1,-1,0,57,0
0.0238157881648,0.00781276042663,0.44071833069,0.0624935468453,0.7,0.45,2,-1,0,58,0
0.0237811906631,0.00781273663222,1.45140004395,0.062494158088,0.034,0.45,3,2,-1,58,0
1.64688667164,0.00781250836989,0.0190087438174,0.026536318544,0.449,0.45,0,0,2,59,0
0.0527197841732,0.00781250090397,-0.00589578987793,1.14018467765,0.497,0.45,3,3,1,60,0
0.0334349099683,0.00781250007222,1.4223991659,0.081061291662,0.66,0.45,2,2,1,61,0
0.0463064671081,1.50929218667,-0.0155886811016,0.0699983657916,0.646,0.45,1,1,1,62,0
2.50158458497,0.0235293730422,0.0157119927454,-0.0397552589167,0.469,0.45,0,0,1,63,0
1.85133824513,0.0234412738213,-0.0163510167653,-0.0785105052876,0.374,0.45,1,0,-1,64,0
0.0780819560909,0.00207835291216,1.5347041544,0.0288155333597,0.491,0.45,2,2,1,65,0
1.25372513066,0.000149704250612,0.023455261665,0.0294076615158,0.59,0.45,0,0,1,66,0
0.0779485933659,1.96731039273e-05,1.48618464634,0.0206509337036,0.581,0.45,2,2,1,67,0
0.0727695319467,2.75173627506e-06,0.0235226421102,1.0274687072,0.536,0.45,3,3,1,68,0
0.0580107490145,0.843513937446,0.0227454530586,-0.0155011163172,0.7,0.45,1,-1,0,70,0
0.0633590034077,1.65604877658,0.0228071875642,-0.0155013458029,0.036,0.45,3,1,-1,70,0
1.31180310563,0.0156496965894,0.0234176268907,0.0188549101272,0.502,0.45,0,0,1,71,0
0.0276372789602,0.0156274882134,0.023435418102,1.21130297319,0.57,0.45,3,3,1,72,0
0.064195881756,1.32329081061,0.0477750155075,6.3780841757e-05,0.7,0.45,1,-1,0,74,0
0.064195881756,1.32329081061,0.0477750155075,6.3780841757e-05,0.023,0.45,0,1,-1,74,0
0.0653316677177,0.0156356544431,1.23774058136,2.15329521192e-06,0.374,0.45,2,2,2,75,0
1.49173711084,0.0156258111965,0.00028727799681,1.8755196729e-07,0.487,0.45,0,0,1,76,0
0.0468753764603,1.09435364772,2.76149351164e-05,2.07532258045e-08,0.521,0.45,1,1,1,77,0
0.0213525308731,0.0159748158905,1.07045591113,0.00399936772644,0.417,0.45,2,2,2,78,0
1.2619861392,0.0156379530262,0.00848264278111,0.000380946704003,0.494,0.45,1,0,-1,79,0
0.00854700172298,0.0221037156417,0.00785363396436,1.42253615929,0.678,0.45,3,3,1,80,0
0.00790408596431,0.016332566227,1.16227324711,0.0239823060499,0.659,0.45,2,2,1,81,0
0.00782699745973,0.0157367016509,0.0173854601602,1.31272702449,0.572,0.45,3,3,1,82,0
1.0300312936,0.0156427975616,0.0158358774835,0.00931577796278,0.483,0.45,0,0,1,83,0
0.0108759618671,0.0156262205042,0.0156393356768,1.04346435991,0.674,0.45,3,3,1,84,0
1.76860878138,0.0156252740595,0.0156282188659,-0.00569170424243,0.471,0.45,0,0,1,85,0
1.19004166543,0.0156250206855,0.0156252429538,-0.00775881634864,0.63,0.45,1,0,-1,86,0
0.0167836993849,0.015199993279,1.08267049817,-0.0178860165946,0.647,0.45,2,2,1,87,0
1.49160644948,0.0155555917105,-0.01550663602,-0.0245017515001,0.54,0.45,0,0,1,88,0
0.046875090024,0.0156200060067,0.196587461989,-0.00848816773832,0.7,0.45,2,-1,0,90,0
0.0468750617583,0.0156208884612,1.03647757919,-0.00836868986067,0.083,0.45,1,2,-1,90,0
1.12741820355,0.00963267309163,0.034719134938,0.0839353963226,0.498,0.45,0,0,1,91,0
0.0622086033153,0.00796520695742,0.0153905540477,1.13824444756,0.512,0.45,3,3,1,92,0
0.111794122465,2.06959242176,-0.0065652726015,0.00788861767007,0.7,0.45,1,-1,0,94,0
0.111794122465,2.06959242176,-0.0065652726015,0.00788861767007,0.00500000000004,0.45,3,1,-1,94,0
0.0178032113629,0.0078229316452,1.08370127818,-0.0120480737931,0.493,0.45,2,2,1,95,0
0.015855377247,0.00781357903458,0.00783251717752,1.0867417417,0.542,0.45,3,3,1,96,0
1.78415847816,-0.0146006578337,-0.0147711774131,-0.00556978915118,0.478,0.45,0,0,1,97,0
0.0468756743208,1.0191616217,-0.000360358339019,0.0311871912828,0.574,0.45,1,1,1,98,0
0.0580453885645,0.0085945759323,1.2283616146,0.0371542230124,0.347,0.45,2,2,2,99,0
2.09536899095,0.00782802884833,-0.0155507888233,0.0389118448384,0.493,0.45,0,0,1,100,0
2.28506196454e-06,0.00781457553185,1.16370524284,0.0399735959794,0.46,0.45,2,2,1,101,0
0.00960391065973,1.08206814107,0.0334210137977,0.024643743775,0.576,0.45,1,1,1,102,0
0.02445282977,0.000131929017286,1.66014026537,0.0192259291024,0.39,0.45,3,2,-1,103,0
0.0237584246856,7.14998598861e-06,0.00198694308812,1.54746213171,0.073,0.45,2,3,-1,104,0
0.0234470345541,1.68584779026e-07,8.79751050031e-06,1.46671449707,0.579,0.45,3,3,1,105,0
0.0234382903992,1.64571990312,0.00707322937311,0.0625514896548,0.7,0.45,1,-1,0,107,0
0.0234382903992,1.64571990312,0.00707322937311,0.0625514896548,0.00800000000004,0.45,0,1,-1,107,0
0.0408055894769,0.0140939906574,-0.0147480234948,1.46659272519,0.574,0.45,3,3,1,108,0
0.0506425240196,0.0154154093817,1.32210140867,0.0154430533654,0.534,0.45,2,2,1,109,0
0.0607646789061,1.25945897831,0.0163123936472,0.0225831298703,0.441,0.45,1,1,2,110,0
3.69008769088,-0.00084356376943,0.015691405767,0.0233073204669,0.366,0.45,0,0,2,111,0
0.0546877228969,-0.00726404904161,1.44090877804,0.0100937990359,0.497,0.45,2,2,1,112,0
1.0916915691,-0.00774515987059,0.0157220986574,0.0388352391756,0.497,0.45,0,0,1,113,0
0.0408708520006,1.91439042626,0.00713822921708,0.025141373781,0.517,0.45,1,1,1,114,0
0.016583144389,0.00784194396232,0.0316232803687,0.00640236999375,0.7,0.45,3,-1,0,116,0
0.0226464625335,0.0113597221761,0.0282517134874,1.76061488687,0.096,0.45,1,3,-1,116,0
0.0233958557788,0.00797574824071,1.25791874312,0.0102440171363,0.396,0.45,2,2,2,117,0
0.0234338396076,0.00782684146043,0.000133461471254,1.1819623258,0.512,0.45,3,3,1,118,0
1.15582956401,0.00781430778238,1.37377799918e-05,0.0245109723235,0.507,0.45,0,0,1,119,0
-0.00781080050196,0.00781266722932,1.26578874049e-06,1.10082531184,0.613,0.45,3,3,1,120,0
-0.00781241016489,1.07549890313,1.40553616523e-07,0.0514444120644,0.651,0.45,1,1,1,121,0
0.0185945939387,0.0094433444946,1.59888496844,0.0493098664671,0.467,0.45,2,2,1,122,0
2.23109051849,0.00793319777699,0.00792781728521,0.0472089018782,0.422,0.45,0,0,2,123,0
0.0625003943259,0.00782021490253,1.36697040347,0.0468966671005,0.637,0.45,2,2,1,124,0
0.0625000412688,1.27062454927,-0.00969088155557,0.046878162371,0.582,0.45,1,1,1,125,0
2.78997253796,0.0160126506897,0.00598935250629,0.0468754141525,0.563,0.45,0,0,1,126,0
0.0130213122679,1.23820461577,0.00763807230202,0.047563618889,0.661,0.45,1,1,1,127,0
0.028015208965,0.00570488934917,0.0404096000314,1.71753669885,0.678,0.45,3,3,1,128,0
0.025502543533,0.00763246319023,1.03764489082,0.0184786280028,0.628,0.45,2,2,1,129,0
0.0254328053965,0.0077848013385,0.00474978704498,1.13202432362,0.547,0.45,3,3,1,130,0
1.95931068171,0.0138424852205,-0.0044786777877,-0.00767282625444,0.44,0.45,0,0,2,131,0
0.0156250462478,0.00817020241878,0.0736451915699,1.34639262311,0.657,0.45,3,3,1,132,0
0.0197237682106,1.59682257233,0.0144448650526,0.0578846054494,0.7,0.45,1,-1,0,134,0
0.0197237682106,1.59682257233,0.0144448650526,0.0578846054494,0.0230000000001,0.45,2,1,-1,134,0
2.40919896952,-0.00640384529761,-0.00348678885953,0.149207723564,0.48,0.45,0,0,1,135,0
0.0327279369435,1.61439243358,0.0214932141243,0.0579301676927,0.633,0.45,1,1,1,136,0
1.51501441214,0.023762333259,0.0231287378165,0.0233523057183,0.545,0.45,0,0,1,137,0
0.0452230597658,0.0706955223876,1.90944714216,-0.011723724923,0.7,0.45,2,-1,0,139,0
0.0452230597658,0.0706955223876,1.90944714216,-0.011723724923,0.00700000000005,0.45,1,2,-1,139,0
0.0545518727517,0.0156746578376,0.0156377158336,1.0540887547,0.514,0.45,3,3,1,140,0
1.71518044754,0.0311190101617,-0.0335912335409,0.174823153505,0.464,0.45,0,0,1,141,0
0.0234397634163,-0.00448803723502,1.27718547672,0.0637995814405,0.447,0.45,3,2,-1,142,0
0.0158945021385,0.0112631184892,1.01351656359,0.0616285225926,0.509,0.45,2,2,1,143,0
0.0224968716815,0.0151250506108,-0.0024144049949,1.24600975965,0.516,0.45,3,3,1,144,0
0.0961436973849,1.13359679619,0.0390024140689,-0.0099666125921,0.511,0.45,1,1,1,145,0
1.32000490694,0.00861952671542,-0.0210929634621,-0.152418175491,0.384,0.45,0,0,2,146,0
0.0321140722516,0.013789194015,1.27593603188,-0.0169151625797,0.361,0.45,2,2,2,147,0
1.38763443234,0.00823762971161,0.0314336164672,0.00653496692233,0.517,0.45,0,0,1,148,0
0.0468257625084,1.68435437062,0.00444840638027,0.0076367515296,0.481,0.45,1,1,1,149,0
0.0352953950987,0.0117190839812,1.15604703895,0.0433043187011,0.421,0.45,2,2,2,150,0
0.0385208981518,0.00811703568191,0.0047001434366,1.24262479287,0.365,0.45,3,3,2,151,0
1.15742090257,0.00784803847478,0.00503684577432,0.00812631268768,0.375,0.45,0,0,2,152,0
0.0318034518264,0.00781547097431,0.00758109048827,1.1587365862,0.501,0.45,3,3,1,153,0
0.0361509164403,0.00781288858667,1.11919732261,0.0314982207936,0.478,0.45,2,2,1,154,0
0.0451694394501,1.30256415628,-0.0152066281949,0.0312746878737,0.363,0.45,1,1,2,155,0
0.0373609654132,0.0156563561369,-0.0156135776726,1.51194497412,0.496,0.45,3,3,1,156,0
1.37962856627,0.0156290143917,-0.00604486798397,0.0316794911908,0.397,0.45,1,0,-1,157,0
0.0628900292026,0.019333215686,1.57052254679,0.0358018304226,0.597,0.45,2,2,1,158,0
0.127419383091,1.59053144431,0.0235381438825,0.0346703174793,0.504,0.45,0,1,-1,159,0
0.070028154171,0.0158166304657,1.78771900211,0.0386263827685,0.567,0.45,2,2,1,160,0
1.85373299594,0.0156533061237,0.00769634513775,0.0122216791032,0.435,0.45,1,0,-1,161,0
2.92199044569,0.0156275799513,0.00022038661189,0.0320926201086,0.531,0.45,0,0,1,162,0
0.0781277544068,0.0156251850984,1.56132881957e-05,0.781659212417,0.7,0.45,3,-1,0,164,0
1.57359082567,0.0156250502631,4.2394413744e-06,-0.00919863855002,0.444,0.45,0,0,2,164,0
0.0625000603766,1.67354235367,3.72113736269e-07,0.0108028886848,0.556,0.45,1,1,1,165,0
0.0625000032121,0.00797186378959,1.33710436402,0.00832877421409,0.424,0.45,3,2,-1,166,0
0.0625000012193,0.00783760426839,0.00681374727471,1.21323865206,0.0330000000001,0.45,2,3,-1,167,0
0.0625000000357,0.00781310804361,0.00369032943825,1.02211332239,0.508,0.45,3,3,1,168,0
2.17167886426,0.00781258098458,0.000468648580376,0.0556870130046,0.48,0.45,0,0,1,169,0
0.0625007698852,0.00781250854933,1.15086836801,0.0620499474615,0.529,0.45,2,2,1,170,0
0.0665059323056,1.0024564322,0.0144640957823,0.058182640598,0.358,0.45,1,1,2,171,0
2.22595684434,0.00781770441531,0.00930725480758,0.0608869272221,0.544,0.45,0,0,1,172,0
0.0355898009925,1.55834596436,0.0129238723884,0.081820369923,0.587,0.45,1,1,1,173,0
0.0389654043195,0.00788889622468,0.644255211754,0.0431464764417,0.7,0.45,2,-1,0,175,0
0.036351566582,0.0156328361086,1.24770778056,-0.0144166705155,0.347,0.45,3,2,-1,175,0
0.0186004853997,0.0082472819069,1.76879355766,0.0748237372578,0.564,0.45,2,2,1,176,0
1.61064633397,0.0951528763909,2.83918403819e-05,0.0516824618406,0.53,0.45,0,0,1,177,0
0.0156253376323,0.00486189237901,-0.00804411538337,1.18205794051,0.622,0.45,3,3,1,178,0
0.0156250148455,1.5452204838,0.00109901774548,0.0316258813076,0.7,0.45,1,-1,0,180,0
0.0156250148455,1.5452204838,0.00109901774548,0.0316258813076,0.00700000000007,0.45,3,1,-1,180,0
1.96666109986,0.00784809016706,0.0182751931259,0.0312585324851,0.501,0.45,0,0,1,181,0
0.0234386158582,0.00781809257724,1.10212165717,0.0262448168315,0.413,0.45,2,2,2,182,0
0.0481928419305,1.84177984202,-0.034116941832,0.0250730937636,0.382,0.45,1,1,2,183,0
1.59393582238,0.0078491909653,0.0120663087337,0.0216258289757,0.458,0.45,0,0,1,184,0
-0.00305665744989,1.03703098207,0.00828792132972,-0.0254526960448,0.554,0.45,1,1,1,185,0
0.0324338627693,0.00375172534384,1.70733999956,-0.0116740346362,0.4,0.45,2,2,2,186,0
0.0233845640679,-0.00530108017013,-0.00776056795304,1.23413059771,0.517,0.45,3,3,1,187,0
0.0164340112436,-0.00754257449621,1.13035972319,0.0361817881128,0.556,0.45,2,2,1,188,0
1.08286885172,-0.00777923447411,0.000453526032306,0.0882851983741,0.554,0.45,0,0,1,189,0
0.0390631639258,-0.00780872746435,3.5425872643e-05,1.10985683814,0.578,0.45,3,3,1,190,0
0.0373439144913,1.4041282764,3.74602109388e-06,0.0300135063462,0.623,0.45,1,1,1,191,0
0.0255908633283,0.00787850999563,5.5505176022e-07,1.05517606262,0.558,0.45,3,3,1,192,0
0.0238291259734,0.00781840572625,1.21478920616,0.0548352839295,0.423,0.45,2,2,2,193,0
1.96903402511,-0.014889555258,-0.0159815676985,0.0245976590271,0.491,0.45,0,0,1,194,0
0.054678385276,1.61792214944,0.0121090673005,0.0367637575252,0.513,0.45,1,1,1,195,0
0.0554159269522,4.76186587077e-05,0.0153974406506,0.0389140056743,0.7,0.45,0,-1,0,197,0
0.0216671795332,5.02459057672e-06,0.0754901205446,0.043175452559,0.7,0.45,2,-1,0,198,0
0.01010426302,1.03293644888,0.000920040699168,0.0396525025977,0.598,0.45,1,1,1,198,0
0.0032108270913,0.00786578823201,-0.0170368089214,1.37143526985,0.558,0.45,3,3,1,199,0
0.0118651040967,1.85365010859,0.00370747017744,0.0238633861468,0.544,0.45,1,1,1,200,0
0.0380979226897,-0.0139903561148,1.1436369584,-0.0364951616098,0.358,0.45,2,2,2,201,0
0.00625809136539,0.00754913710796,0.00779347185181,1.35652769254,0.499,0.45,3,3,1,202,0
2.11262306253,-0.0123027662994,0.0114527615473,-0.0237006417153,0.518,0.45,0,0,1,203,0
0.0676052038299,-0.0012873992423,0.00778547137456,1.04334171769,0.544,0.45,3,3,1,204,0
2.89020791572,-0.000179201115977,0.00780873457418,0.0433751932153,0.499,0.45,0,0,1,205,0
0.0476878431863,1.01346364757,0.00781212003602,0.0510233512288,0.561,0.45,1,1,1,206,0
0.0469773491114,-0.00746577883579,1.86568219765,-0.101634582184,0.343,0.45,2,2,2,207,0
1.33071151905,-0.00780621090969,0.0218122047354,0.0109536425193,0.449,0.45,0,0,2,208,0
0.0149161231386,2.22353179385,0.00920408814137,0.0155665477055,0.381,0.45,2,1,-1,209,0
-0.080932070125,1.13031035952,-0.0279412986205,-0.244431215408,0.558,0.45,1,1,1,210,0
1.42838778799,-0.0162371880924,-0.00771254455683,-0.0213874925678,0.493,0.45,0,0,1,211,0
0.045582438883,-0.0107387525855,-0.0105064818805,1.38355154962,0.518,0.45,3,3,1,212,0
0.0396252919086,1.66030654271,0.0553657152933,-0.0232548129925,0.7,0.45,1,-1,0,214,0
0.0396252919086,1.66030654271,0.0553657152933,-0.0232548129925,0.0260000000001,0.45,3,1,-1,214,0
0.0248249039605,1.1638326104e-05,1.71222612472,-0.00681577251494,0.404,0.45,2,2,2,215,0
0.021577649978,8.06184680346e-07,0.0114693748452,1.59805927366,0.577,0.45,3,3,1,216,0
1.06733581636,0.0138269288629,0.0312490850653,0.11440395867,0.609,0.45,0,0,1,217,1
0.126282542262,0.00790987912079,1.51950709251,0.107786469084,0.693,0.45,2,2,1,218,1
0.122400609954,1.53023741891,0.0234754785878,0.102035919017,0.63,0.45,1,1,1,219,1
0.112213549858,0.00789130743152,0.0234397825711,1.69772543672,0.518,0.45,3,3,1,220,1
0.105189044698,0.00781619693976,1.58626207949,0.0667078243583,0.474,0.45,2,2,1,221,1
0.107122726967,0.00781279809697,0.00948312778002,1.26301825099,0.606,0.45,3,3,1,222,1
0.231366415895,1.12883541858,0.0287357865525,0.019896146319,0.606,0.45,1,1,1,223,1
3.63217851238,0.0312649123494,0.0352216007414,-0.0857771971468,0.476,0.45,0,0,1,224,1
0.0908338932682,1.72805888891,0.0252217714054,0.0201233421969,0.368,0.45,1,1,2,225,1
0.0940360574469,0.0310389800364,1.02537072957,0.108947811006,0.349,0.45,2,2,2,226,1
4.88515783492,0.0312397837762,0.0158316487055,0.030930776712,0.551,0.45,0,0,1,227,1
0.104780607949,0.00323211174748,0.0156451290711,1.85153499558,0.55,0.45,3,3,1,228,1
1.67164247246,0.0167025871829,0.0198563847774,0.0440012653265,0.517,0.45,0,0,1,229,1
0.127254175578,1.36579774713,0.0484957991008,0.0670823794079,0.58,0.45,2,1,-1,230,1
0.0968742743346,0.0330456659707,0.0235386363361,2.03960490415,0.646,0.45,3,3,1,231,1
0.102587424143,1.40580042438,0.0234443292124,0.0234830368512,0.683,0.45,1,1,1,232,1
0.0950871811695,0.0253259283686,1.65138758926,0.0271565304499,0.604,0.45,2,2,1,233,1
0.0861760198446,1.70365717088,0.00798380915646,0.0347663101824,0.593,0.45,1,1,1,234,1
0.0886488784314,0.0260456548177,0.0485062781918,1.37177441479,0.557,0.45,3,3,1,235,1
1.46168079972,0.0316360175688,0.0368710560383,-0.0450900217993,0.388,0.45,0,0,2,236,1
0.0329196286115,0.0328971949517,0.0416907868633,1.50611773409,0.7,0.45,3,-1,0,238,1
0.0329196286115,0.0328971949517,0.0416907868633,1.50611773409,0.0260000000001,0.45,2,3,-1,238,1
1.88436407206,0.0205251863282,0.0210012788012,0.0442893518198,0.608,0.45,0,0,1,239,1
0.0828635243317,1.31731104751,0.0233210536709,0.0477007710309,0.669,0.45,1,1,1,240,1
1.95548562717,0.0194674572957,0.0166147592815,0.0814362271069,0.627,0.45,0,0,1,241,1
0.087362267502,0.02293148703,0.0317338675746,1.22679058875,0.546,0.45,3,3,1,242,1
0.0794308354128,0.0168752722929,1.46127422096,-0.0407322138384,0.555,0.45,2,2,1,243,1
0.110114624698,1.74186901689,0.000812080627294,0.0237179645585,0.375,0.45,1,1,2,244,1
0.082209232763,0.00790024935688,0.000970914502466,1.32082027678,0.445,0.45,3,3,2,245,1
1.27715913233,0.00782027085705,-0.0121372342859,-0.12549200496,0.466,0.45,1,0,-1,246,1
0.0593362959929,0.00781331249291,1.1532727689,0.0277171439671,0.52,0.45,2,2,1,247,1
1.25314867847,0.00849719584078,0.0163359335084,0.0373462468279,0.449,0.45,0,0,2,248,1
0.0587436291582,1.11862601751,0.0156609128857,0.038936913314,0.627,0.45,1,1,1,249,1
2.55042556862,0.0194750969385,0.0156294279381,0.0229718163169,0.627,0.45,0,0,1,250,1
0.0963624447815,0.0115635592766,0.0882606840394,0.0245747427086,0.7,0.45,2,-1,0,252,1
0.0967575127444,0.0230871612918,1.35091572524,0.0264152636317,0.325,0.45,3,2,-1,252,1
2.21211574016,-0.00327629356706,0.00792645500768,0.0626990539077,0.609,0.45,0,0,1,253,1
0.0238796526534,0.0176012205699,1.14274240253,0.0823853199993,0.458,0.45,2,2,1,254,1
0.0485899900621,0.0105476576049,0.0261830443223,1.04592127152,0.495,0.45,3,3,1,255,1
0.0592475173663,1.29750316122,0.0283243971361,0.0296189166961,0.637,0.45,1,1,1,256,1
0.0539979996767,0.00293297109035,0.0505996902323,1.6806042363,0.7,0.45,3,-1,0,258,1
0.0539979996767,0.00293297109035,0.0505996902323,1.6806042363,0.0090000000001,0.45,2,3,-1,258,1
0.0629613967409,0.000319576694995,1.39097405215,0.0629723287199,0.0250000000001,0.45,1,2,-1,259,1
0.0682208325443,1.04290836567,0.00786929637234,0.0330043020271,0.0630000000001,0.45,0,1,-1,260,1
0.0574958137107,0.00285807942053,2.07681768334,-0.195256851581,0.347,0.45,3,2,-1,261,1
0.0884373449608,0.0151844847579,0.0156695936805,0.0468829646785,0.7,0.45,0,-1,0,263,1
2.40733269674,0.0155078103952,0.0156361227906,0.0232913675581,0.469,0.45,1,0,-1,263,1
0.0689648725051,0.0234425762726,1.93259002325,0.225900374967,0.373,0.45,2,2,2,264,1
3.42982583012,0.00533002257631,0.0130754226895,0.0494585154046,0.64,0.45,0,0,1,265,1
0.0939932768457,1.27999428303,0.0367798100424,0.025855097046,0.479,0.45,2,1,-1,266,1
0.0619425438867,0.0176437477562,-0.0233974927798,1.33293552429,0.559,0.45,3,3,1,267,1
0.0758041410086,1.11910607971,0.0135011591799,0.0529240580558,0.7,0.45,1,-1,0,269,1
0.0758041410086,1.11910607971,0.0135011591799,0.0529240580558,0.0110000000001,0.45,3,1,-1,269,1
0.0749728821659,0.00610661563208,-0.00655901192719,1.272370346,0.389,0.45,2,3,-1,270,1
0.0785760284067,0.589955676321,0.00312097393025,0.0157226443371,0.7,0.45,1,-1,0,272,1
0.0785325891497,1.77517417437,0.00567170106368,0.0135447148188,0.0460000000001,0.45,0,1,-1,272,1
0.0839724997005,1.48943127226,0.0229306114979,0.0226315841632,0.467,0.45,1,1,1,273,1
0.0815583210184,0.0157555109036,1.59057731332,0.0405746947571,0.397,0.45,2,2,2,274,1
1.93007675293,0.0200378731125,0.00788187299619,0.0340967744981,0.519,0.45,0,0,1,275,1
0.0781512735397,0.0131982559987,0.00108674582543,1.6915195008,0.547,0.45,3,3,1,276,1
1.8804329779,0.0191957583086,0.0200789552771,0.0391800720509,0.549,0.45,0,0,1,277,1
0.086664651821,0.0110484329379,1.23533567992,0.0372769202676,0.502,0.45,2,2,1,278,1
0.0767426160429,0.00814211102267,0.016055386552,1.41864401214,0.56,0.45,3,3,1,279,1
0.075778822547,0.35286028897,0.0156538621061,-0.00765534957618,0.7,0.45,1,-1,0,281,1
0.0779716381818,1.00162112094,0.0156512939132,-0.00767262546125,0.0310000000001,0.45,2,1,-1,281,1
0.0805332247819,1.42628695072,0.0124938980851,-0.0031589940298,0.602,0.45,1,1,1,282,1
0.0716672117724,0.0158265526421,0.000640797177099,1.63874350887,0.496,0.45,3,3,1,283,1
0.0780792767171,0.0156384389292,1.4728485432,0.0469155399462,0.485,0.45,2,2,1,284,1
0.0999683695414,1.03922358828,0.0242520295907,0.0270582237691,0.36,0.45,0,1,-1,285,1
0.091663938184,0.0161568289909,0.0082151117398,1.26509454305,0.58,0.45,3,3,1,286,1
1.44838165007,0.0115616296707,0.00785979932231,0.0238708900787,0.61,0.45,0,0,1,287,1
0.0934802264377,1.39398504046,0.00781807165669,0.0234708537277,0.625,0.45,1,1,1,288,1
1.56758870368,0.00800034436904,0.00781330644322,0.0188750688918,0.571,0.45,0,0,1,289,1
0.06000789165,0.00782933360657,1.24443293617,0.0336824033917,0.486,0.45,2,2,1,290,1
0.0496362901654,1.14959116441,0.0272424037549,0.0944489215181,0.431,0.45,1,1,2,291,1
0.0602244399244,0.00831944216482,0.0236538102162,1.02870391471,0.52,0.45,3,3,1,292,1
0.0626057288147,1.62091748996,0.0234546305198,0.0235193295426,0.666,0.45,1,1,1,293,1
0.0503508928825,0.00130416576508,1.16941782113,0.161956050425,0.44,0.45,2,2,2,294,1
0.0683495590452,0.00750705629744,-0.00323604005202,1.14508742124,0.444,0.45,3,3,2,295,1
0.0601912412703,0.00778479702708,1.10298853886,0.0395127364095,0.558,0.45,2,2,1,296,1
1.64173952793,0.0174745055042,0.0150416061799,0.00448750906284,0.603,0.45,0,0,1,297,1
0.0789326205989,0.00898775567359,0.0188495229792,1.39241434074,0.609,0.45,3,3,1,298,1
1.43942416339,0.00796306822871,0.0455930154929,0.0322595023603,0.596,0.45,0,0,1,299,1
0.0826000581764,0.00968691410502,0.126689229155,-0.0102946632661,0.7,0.45,1,-1,0,301,1
0.0613329066589,1.00775273202,0.00629548717495,0.04060093556,0.185,0.45,0,1,-1,301,1
0.0840723672667,0.0080971779279,1.06791919855,0.00163187116841,0.637,0.45,2,2,1,302,1
0.0685000162054,0.00341013865698,-0.00897255559779,2.13950607493,0.43,0.45,3,3,2,303,1
0.0758145503812,0.0302259618286,0.0843778442928,0.0415159750238,0.7,0.45,1,-1,0,305,1
0.0600243581057,0.0179628779155,1.26020147086,0.0401876669487,0.563,0.45,2,2,1,305,1
0.0629399834872,1.6698231507,0.00434698442961,-0.0203404328011,0.53,0.45,1,1,1,306,1
0.0697774457567,0.00789805703276,0.0120982229068,1.16866457966,0.539,0.45,3,3,1,307,1
1.07770960178,0.0148005537065,0.0202650224103,0.046969954528,0.54,0.45,0,0,1,308,1
0.0734705696256,0.00846192850309,0.0160651298819,1.19335481872,0.601,0.45,3,3,1,309,1
0.0669692572203,0.015758539228,1.0536742195,0.0401479006662,0.508,0.45,2,2,1,310,1
1.52985630741,0.0869736063979,-0.0415144587404,0.654579289097,0.548,0.45,0,0,1,311,1
0.0993008343522,0.32504859757,0.0195805572344,0.041368553985,0.7,0.45,1,-1,0,313,1
1.52944139396,0.0127064599885,0.0227633628386,0.0289269606188,0.611,0.45,0,0,1,313,1
0.0645109478121,1.04124830458,0.0233238739803,0.0223330384474,0.507,0.45,1,1,1,314,1
0.0789003197027,0.0101899857194,1.47537491906,0.0233025023288,0.533,0.45,2,2,1,315,1
0.0846562060004,0.00819405925739,0.0250867700941,1.22096450998,0.394,0.45,3,3,2,316,1
0.087047577236,1.12357246348,0.0234850175938,0.0279410310884,0.7,0.45,1,-1,0,318,1
0.087047577236,1.12357246348,0.0234850175938,0.0279410310884,0.0180000000001,0.45,3,1,-1,318,1
0.0808000391293,0.0157596770406,0.023438194352,0.0336519362942,0.7,0.45,2,-1,0,320,1
0.343008169044,0.513873870284,0.0172046872487,0.0247211417367,0.7,0.45,1,-1,0,321,1
0.302428784787,1.05750051644,0.0192761628417,0.024603806845,0.0470000000001,0.45,0,1,-1,321,1
0.0864063069518,0.00011160713513,0.0042307239357,1.00624239231,0.538,0.45,3,3,1,322,1
1.31513290308,0.0340369385523,0.0119524808216,-0.156040072425,0.678,0.45,0,0,1,323,1
0.090268638707,0.0100781868264,0.115854258394,0.0271617249736,0.7,0.45,2,-1,0,325,1
0.082412580249,0.00887182812331,1.03966530111,0.0253266931138,0.258,0.45,0,2,-1,325,1
2.81931958791,0.0080859854241,0.024620181032,0.0155338234585,0.0150000000001,0.45,1,0,-1,326,1
0.0764004579122,0.00782021797957,2.09757508498,0.0268993409706,0.508,0.45,2,2,1,327,1
0.0808628232673,0.00781342592465,0.0149988604969,2.00821559069,0.514,0.45,3,3,1,328,1
0.0850133020294,0.0078126501411,1.38158921438,-0.0214808223416,0.433,0.45,2,2,2,329,1
0.0837059778059,1.62046771917,0.000495418216113,-0.00109877639679,0.447,0.45,1,1,2,330,1
0.0738191368034,0.00828190946104,0.075659350394,0.259871732289,0.7,0.45,3,-1,0,332,1
0.0753560665101,0.0081839892142,0.0596390376897,2.17359980411,0.0750000000001,0.45,1,3,-1,332,1
0.0781470290908,1.09542564189,0.0206743392148,-0.00779224728362,0.0350000000001,0.45,0,1,-1,333,1
0.0821332078519,0.0157240925623,0.00999513875369,2.38178166174,0.6,0.45,3,3,1,334,1
2.64285928645,0.00616788461583,0.00816644226728,0.0312526625312,0.5,0.45,0,0,1,335,1
0.0719725683122,0.00755056562628,1.19335565052,0.00833171490998,0.407,0.45,2,2,2,336,1
1.28700713608,0.0314718247158,0.00431821699608,-0.12476066376,0.7,0.45,0,-1,0,338,1
1.28700713608,0.0314718247158,0.00431821699608,-0.12476066376,0.0160000000001,0.45,1,0,-1,338,1
0.0844492198906,0.0236690159267,1.44983824127,0.0287164593596,0.457,0.45,2,2,1,339,1
0.0712582234154,0.0234626257301,0.00823863960283,1.80024918682,0.495,0.45,3,3,1,340,1
0.0882194152009,0.0234406729795,1.07619797119,0.0503913043723,0.483,0.45,2,2,1,341,1
0.0811734547951,1.03210418762,0.0331070675515,0.0546642896089,0.463,0.45,1,1,1,342,1
0.0646480268902,0.0178561118553,0.0494081420096,1.59813534637,0.514,0.45,3,3,1,343,1
2.72554047926,0.015851352655,0.0109507963085,0.0186910596918,0.546,0.45,0,0,1,344,1
0.0987510178702,0.00826384536927,0.00839404592227,1.06453119132,0.404,0.45,3,3,2,345,1
0.0944739733656,1.0086701032,0.00784408809512,0.0235699222316,0.675,0.45,1,1,1,346,1
1.21295422193,0.00367087546079,0.0318883437801,0.000237915537205,0.626,0.45,0,0,1,347,1
0.0886903330181,0.000224781153613,0.0576738137834,0.0180794365239,0.7,0.45,2,-1,0,349,1
0.0882399488119,0.00521091764022,1.26606756726,0.0605999198507,0.224,0.45,0,2,-1,349,1
0.0899361013548,1.15276281562,0.0336707450746,0.0384037932109,0.506,0.45,1,1,1,350,1
0.0690280299634,0.00839144037882,1.50568109579,0.0406954333986,0.435,0.45,3,2,-1,351,1
0.0646028343504,0.0145325691131,0.0233703196858,0.0469209499323,0.7,0.45,2,-1,0,353,1
0.0666582379797,0.0191280566997,1.60155329321,0.0396625626547,0.0700000000001,0.45,3,2,-1,353,1
0.134545157601,0.0079931229361,0.0235437328935,0.0239611432999,0.7,0.45,1,-1,0,355,1
0.120676995632,1.19406005997,0.0235248299488,0.027345632014,0.0730000000001,0.45,2,1,-1,355,1
0.0786226877483,1.35246486576,0.0234398177814,0.0137981043295,0.599,0.45,1,1,1,356,1
1.27508381741,-0.00103105711252,0.0234378631195,0.0111288109433,0.516,0.45,0,0,1,357,1
0.101596308613,0.00652898860269,0.0195570812422,1.08680649675,0.518,0.45,3,3,1,358,1
1.92818033043,0.00764420126002,0.0136984298479,-0.0175750346714,0.491,0.45,0,0,1,359,1
0.0977656762312,0.00778833117023,1.48119100492,0.0335773612406,0.44,0.45,2,2,2,360,1
1.53570951637,-0.00978990089315,0.0148758290472,-0.00699585270288,0.523,0.45,0,0,1,361,1
0.0507525209495,1.24814426806,0.0366478786293,0.0262547347817,0.56,0.45,1,1,1,362,1
0.0286532967966,0.00161214076525,1.10984898304,-0.155695216065,0.345,0.45,2,2,2,363,1
0.057358314055,0.0142423290175,0.00636822316179,2.03806080307,0.33,0.45,3,3,2,364,1
0.0717876267868,0.0154995842155,1.50807436494,0.0335264976569,0.426,0.45,2,2,2,365,1
0.0751365807957,1.43860915766,0.0249867249262,0.038371871233,0.358,0.45,1,1,2,366,1
0.154190994543,0.0251436892656,0.0398462844422,1.73783409092,0.622,0.45,3,3,1,367,1
2.56964701689,0.0216038785152,0.0177203288851,0.082395745124,0.662,0.45,0,0,1,368,1
0.0783460033166,0.02316649976,0.0159351127839,2.14794083531,0.599,0.45,3,3,1,369,1
0.0892987377205,0.341940772615,0.0798982960789,0.05171189414,0.7,0.45,1,-1,0,371,1
1.75706702878,0.0125922975885,0.0164772775448,0.0612387034017,0.7,0.45,0,-1,0,372,1
1.75706702878,0.0125922975885,0.0164772775448,0.0612387034017,0.0270000000001,0.45,2,0,-1,372,1
2.87392037512,0.00863265879004,0.0156407985876,0.0653480729826,0.641,0.45,0,0,1,373,1
0.0719431588911,1.00210977392,0.0302663724541,0.0593493235464,0.546,0.45,1,1,1,374,1
0.0370771009482,0.0322281694685,1.73603945866,0.02797372919,0.326,0.45,2,2,2,375,1
0.0611711604924,0.0240438197127,0.0062008105164,1.34015568572,0.406,0.45,3,3,2,376,1
0.0560826545532,0.0234758382957,1.14941757522,0.044367248617,0.625,0.45,2,2,1,377,1
0.086477921088,1.57134581078,0.0270849668392,0.0403395866394,0.45,0.45,1,1,1,378,1
3.49485891677,0.022855550747,0.0240764374753,0.0393877285358,0.2,0.45,3,0,-1,379,1
0.0941111533451,1.36543785668,0.0105807824952,0.0453499549739,0.668,0.45,1,1,1,380,1
1.78797277169,-0.04285562823,0.0615901866579,0.252177881082,0.51,0.45,0,0,1,381,1
0.101263314839,0.00889506717665,1.11543355307,0.0322139156907,0.406,0.45,2,2,2,382,1
1.30829874136,0.0151199273835,0.0037475462363,0.0240960448681,0.564,0.45,0,0,1,383,1
0.0990323370913,0.00912275409059,0.0197277460098,1.79371657715,0.7,0.45,3,-1,0,385,1
0.0990323370913,0.00912275409059,0.0197277460098,1.79371657715,0.00700000000015,0.45,0,3,-1,385,1
0.0926313138416,0.00783967522065,0.000251921296708,1.22404550897,0.6,0.45,3,3,1,386,1
0.0850594160157,0.00781691580281,1.38358385245,-0.0676447609022,0.507,0.45,2,2,1,387,1
0.0760869390191,1.28236707058,0.0153028073221,-0.0162639360581,0.441,0.45,1,1,2,388,1
0.0810421860348,0.0107727760728,0.0364720391227,1.31766256007,0.501,0.45,3,3,1,389,1
0.0796789989192,1.16566643811,0.0103326229432,0.0415287400949,0.531,0.45,1,1,1,390,1
0.0741572985916,0.00871368472666,1.06201852984,0.021140214218,0.526,0.45,2,2,1,391,1
0.100614663709,0.0185354516494,0.0171643565402,1.21279685062,0.419,0.45,3,3,2,392,1
2.47566828566,0.00695070854485,0.00733852316151,0.0476226899026,0.535,0.45,0,0,1,393,1
0.0498168716533,0.0116847722139,0.0437095368442,0.0440956256497,0.7,0.45,2,-1,0,395,1
0.0355528872249,0.00997470550181,1.12027957733,0.0521089296953,0.221,0.45,0,2,-1,395,1
2.12818742884,0.0079827212669,0.023527741456,0.0302054607331,0.367,0.45,1,0,-1,396,1
0.061667062198,0.012194437133,0.0170612290029,0.0256306044405,0.7,0.45,0,-1,0,398,1
2.21113606878,-0.0046580885242,0.0161953130285,0.0243072075237,0.315,0.45,2,0,-1,398,1
0.0900037323087,0.012464747525,0.0259891652648,1.58383262881,0.567,0.45,3,3,1,399,1
0.0881500767513,0.699958755373,0.0236349987791,0.0454075690869,0.7,0.45,1,-1,0,401,1
0.0897821935232,1.15021427086,0.0236158883744,0.0447461307072,0.0500000000002,0.45,2,1,-1,401,1
0.0715868250344,1.02215326163,0.0307850046332,0.0339715780452,0.7,0.45,1,-1,0,403,1
0.0715868250344,1.02215326163,0.0307850046332,0.0339715780452,0.0400000000002,0.45,3,1,-1,403,1
0.0818433526845,0.00785674235051,1.09671128858,0.0309272247186,0.555,0.45,2,2,1,404,1
1.31464670035,0.00358671639649,0.0207071707177,0.032312725455,0.553,0.45,0,0,1,405,1
0.0499325019435,1.00148071963,0.0159850516379,0.0378798509472,0.629,0.45,1,1,1,406,1
1.67451766813,0.00588583026741,0.0156771707801,0.0275313792037,0.575,0.45,0,0,1,407,1
0.100401789072,0.00067962951961,0.0156321773983,1.09528315863,0.539,0.45,3,3,1,408,1
2.63194819215,8.50505550061e-05,0.0156259017964,0.0232130107114,0.538,0.45,0,0,1,409,1
0.0795509850058,0.0075643592059,1.51815984494,0.00645582509965,0.49,0.45,2,2,1,410,1
0.0820562685815,0.00778285416963,0.00877536784972,1.41890409273,0.519,0.45,3,3,1,411,1
0.109237162065,1.78034214001,0.00787296763948,0.0314908148011,0.7,0.45,1,-1,0,413,1
0.109237162065,1.78034214001,0.00787296763948,0.0314908148011,0.0130000000002,0.45,2,1,-1,413,1
0.0848038228814,1.14434359877,0.0269934684338,0.0311750401947,0.651,0.45,1,1,1,414,1
0.107233524008,0.00313439546269,0.0345366817147,1.35971797885,0.598,0.45,3,3,1,415,1
1.35005326957,-0.0062659833032,0.0106819247359,0.037379035089,0.569,0.45,0,0,1,416,1
0.0898245910389,1.56390001802,0.0104993633206,0.0297116156032,0.672,0.45,1,1,1,417,1
1.60228520873,0.00982289738612,0.0835061512334,0.44540499593,0.598,0.45,0,0,1,418,1
0.0477017661058,0.00684651136229,0.0776552829664,0.539472696538,0.7,0.45,3,-1,0,420,1
0.0523966966209,0.00884406046771,0.0597339275813,1.50084634785,0.0550000000002,0.45,2,3,-1,420,1
2.3112773847,0.023096489264,0.0159799752418,0.0235647978669,0.571,0.45,0,0,1,421,1
0.0518454378866,0.0233915279218,0.0156728023534,1.16903831823,0.542,0.45,3,3,1,422,1
0.0457193017539,0.023434079944,0.0156285561316,0.053795851453,0.7,0.45,1,-1,0,424,1
0.051775348034,1.08035504139,0.0156278946591,0.0495834010557,0.0810000000002,0.45,2,1,-1,424,1
0.0328902643897,0.0237429594002,0.00465629267064,2.37538912008,0.551,0.45,3,3,1,425,1
0.0424986101827,0.0234778042908,1.06999666355,0.0234028237774,0.525,0.45,2,2,1,426,1
0.0488216054423,1.41747331517,0.0165465384303,0.00529837608031,0.421,0.45,1,1,2,427,1
1.39804698137,0.0193106626536,0.00683835411679,0.0121683140143,0.33,0.45,0,0,2,428,1
0.0871128295298,0.00845042763058,0.00831356991262,0.0145991348007,0.7,0.45,2,-1,0,430,1
1.51104339371,0.00796091606687,-0.0377596670371,-0.183502417655,0.505,0.45,0,0,1,430,1
0.0406683087901,1.00835306651,0.0117418824136,0.015231260821,0.562,0.45,1,1,1,431,1
0.12534415326,0.0380294492461,1.25831344809,-0.0279453286394,0.38,0.45,3,2,-1,432,1
0.0661765549714,0.0190648404288,0.0525320935295,1.2083628294,0.0130000000002,0.45,0,3,-1,433,1
0.58507333309,0.000163621973597,0.015711187835,0.12853166638,0.7,0.45,0,-1,0,435,2
1.09292554028,0.0001459685273,0.0157016535742,0.12960950978,0.0500000000002,0.45,2,0,-1,435,2
0.0722631164589,1.38817074593,0.0279067019685,0.116078656197,0.635,0.45,1,1,1,436,2
0.0581177887386,0.0165000296863,1.31827074211,0.108797195315,0.557,0.45,3,2,-1,437,2
0.0641369336563,0.0156752836448,0.792753429378,0.0990582164537,0.7,0.45,2,-1,0,439,2
0.067080044481,0.0156705411942,1.17875218028,0.0975884955483,0.0420000000002,0.45,3,2,-1,439,2
0.077589374391,0.839880811613,0.00792540956121,0.0527071003716,0.7,0.45,1,-1,0,441,2
0.0625468990656,0.00111288859435,1.25952179345,-0.240239590459,0.586,0.45,2,2,1,441,2
1.12925772056,0.0441486720857,0.00816382690809,0.0272651901478,0.54,0.45,0,0,1,442,2
0.055852955153,1.36478340851,0.0247189825349,0.0447538007177,0.572,0.45,1,1,1,443,2
1.38294184824,0.00472636606925,0.024862080665,0.0363122893485,0.61,0.45,0,0,1,444,2
0.109291971613,0.0274655768814,0.0322375465868,1.56528142661,0.621,0.45,3,3,1,445,2
1.45341609002,0.0208834038386,0.0289434746762,0.0233216075643,0.516,0.45,0,0,1,446,2
0.0825784206574,1.28248912079,0.00221912521077,0.0397178038579,0.584,0.45,1,1,1,447,2
0.0800008823427,0.00863130546998,0.0747718834501,1.61128865153,0.7,0.45,3,-1,0,449,2
0.0800008823427,0.00863130546998,0.0747718834501,1.61128865153,0.0170000000002,0.45,2,3,-1,449,2
0.0722098606853,0.00783767749039,-0.00639258984816,1.55388163727,0.457,0.45,3,3,1,450,2
1.47809599115,-0.00395528178022,0.0137471795307,0.0354483503507,0.55,0.45,1,0,-1,451,2
0.0679619391032,0.00360033567146,0.0227561721758,0.0591811775886,0.7,0.45,2,-1,0,453,2
0.066634103573,0.018807635419,0.023356939792,0.0492555373609,0.7,0.45,1,-1,0,454,2
0.130992477196,1.62658711238,0.0233704112307,0.0474581290812,0.0760000000002,0.45,0,1,-1,454,2
0.045554500246,0.00476448704485,1.02420806276,-0.0472236400205,0.522,0.45,2,2,1,455,2
1.45336212399,0.0147041233703,0.0160427782493,0.0143306076083,0.615,0.45,0,0,1,456,2
0.0488369061371,0.00782234251831,-0.00172936646838,1.09411055423,0.545,0.45,3,3,1,457,2
1.17260731921,0.0118553562768,0.00743344627721,0.0684825916285,0.482,0.45,0,0,1,458,2
0.0618093633415,1.16002648489,0.00777133707323,0.0482407310345,0.509,0.45,1,1,1,459,2
0.0281148427338,-0.00772682957198,-0.0806462246177,0.797918984239,0.7,0.45,3,-1,0,461,2
0.0291552573323,0.00115125813086,-0.0683910022565,1.56043232655,0.0510000000002,0.45,2,3,-1,461,2
3.24339146961,0.0416521965438,0.00621817814074,0.0380505013927,0.549,0.45,1,0,-1,462,2
0.0967607827143,0.0244389862916,1.13283211019,0.224578446946,0.7,0.45,2,-1,0,464,2
0.0967607827143,0.0244389862916,1.13283211019,0.224578446946,0.00300000000018,0.45,3,2,-1,464,2
0.0942387236317,1.44262243857,0.0236320838633,0.0327210518508,0.625,0.45,1,1,1,465,2
1.66256313365,0.00912517390902,0.0175366790227,0.0255360844021,0.506,0.45,0,0,1,466,2
0.0863667125578,0.00788497238648,0.0157690022814,1.46321381675,0.663,0.45,3,3,1,467,2
2.25563696614,0.00782252676657,0.0156449683249,0.00136949290719,0.621,0.45,0,0,1,468,2
0.094961793297,0.00781343067823,0.0390032742822,-0.0140800669862,0.7,0.45,2,-1,0,470,2
2.263665823,0.0123320173628,-0.0160453250005,0.170937260576,0.695,0.45,0,0,1,470,2
0.0891536503784,0.00145659698245,-0.00887274806081,1.52657301736,0.662,0.45,3,3,1,471,2
0.0935006272896,0.0203012221322,1.36003221499,0.0244077774452,0.595,0.45,2,2,1,472,2
0.080382843661,1.43417958352,0.00845691336666,0.0250989511193,0.475,0.45,1,1,1,473,2
1.29591199446,0.00048990401074,0.00788988699044,0.0231388840868,0.291,0.45,3,0,-1,474,2
0.0780790920096,6.0108622828e-06,0.0292059331133,0.0235235307658,0.7,0.45,1,-1,0,476,2
0.292661374824,1.51053294958,0.0208232387635,0.0171086711634,0.636,0.45,2,1,-1,476,2
0.0775350976328,0.0242939910106,0.00900707319934,0.0213184719539,0.7,0.45,3,-1,0,478,2
0.0678909255721,0.0235247907415,0.00795933820214,0.0231779874365,0.7,0.45,0,-1,0,479,2
0.0683877053629,1.2655823794,-0.110695817854,0.0546827286154,0.101,0.45,2,1,-1,479,2
1.3235941488,-0.0558783839642,-0.00156485907525,-0.102944433752,0.674,0.45,0,0,1,480,2
0.0333803189224,0.0106539584192,0.129784530852,0.000651314861551,0.7,0.45,1,-1,0,482,2
1.76209826228,-0.00994466616329,-0.000767360037366,0.00645225244033,0.565,0.45,0,0,1,482,2
0.0464308384097,0.0261503219859,-0.0197436622428,1.05699724325,0.576,0.45,3,3,1,483,2
0.0479043562908,0.47873372709,0.00610728461619,0.0404495846836,0.7,0.45,1,-1,0,485,2
0.0540307217622,1.17769837945,0.00626795595616,0.0403064891285,0.0640000000002,0.45,2,1,-1,485,2
0.0529072601397,1.20765589747,0.03487228485,0.0134434262517,0.64,0.45,1,1,1,486,2
0.0576953231863,0.00859850074738,0.0109117712514,1.31900241674,0.598,0.45,3,3,1,487,2
0.0578743911726,0.0078861648376,1.12245006943,0.0271397658794,0.59,0.45,2,2,1,488,2
0.0763633887932,0.00782173563637,0.00918201002111,1.15231251501,0.583,0.45,3,3,1,489,2
1.04146437199,0.00781387463007,0.00798607408368,0.0238513759708,0.521,0.45,0,0,1,490,2
0.0857938471497,0.244817260408,1.24864407627,0.0227418027162,0.681,0.45,2,2,1,491,2
0.0611586336425,0.0135601888703,0.0241133424557,0.0233570957765,0.7,0.45,0,-1,0,493,2
1.14522969725,0.0143600327971,0.0192807806795,0.0353601630952,0.15,0.45,1,0,-1,493,2
2.74568025241,0.0272955885649,0.011843501579,0.0391507422145,0.657,0.45,0,0,1,494,2
0.0684715340577,0.0239845844948,0.00198421964042,1.38974884177,0.589,0.45,3,3,1,495,2
0.10808451802,1.03596249916,0.000216737447894,0.0409813141125,0.624,0.45,1,1,1,496,2
0.0839036894118,0.00893373341248,0.0621115505159,0.0501065273569,0.7,0.45,2,-1,0,498,2
1.3495273953,0.00802454835209,0.0144584578304,0.00162934021293,0.548,0.45,1,0,-1,498,2
0.0587822712639,0.00782895038766,0.00229346711025,0.759781498215,0.7,0.45,3,-1,0,500,2
0.0700988530355,0.00781580057369,1.1494984769,0.0462108845729,0.549,0.45,2,2,1,500,2
0.0672441229357,0.0390073565216,-0.00179020919221,0.0353820305797,0.7,0.45,0,-1,0,502,2
0.0726627479372,0.0195394135322,0.291381464069,0.0257404769362,0.7,0.45,1,-1,0,503,2
0.0588902178238,0.00916759480235,0.00928129254412,0.0250061670374,0.7,0.45,0,-1,0,504,2
0.0703084654781,0.00419366658626,1.16048429756,0.0206396003554,0.537,0.45,2,2,1,504,2
0.0609503954288,0.00744141594135,0.0239872963015,1.30999128991,0.578,0.45,3,3,1,505,2
2.35537944491,0.0077696825824,0.0234909210915,0.00254738971687,0.596,0.45,0,0,1,506,2
0.0226657248166,0.00780875201266,-0.00621105994641,1.63739749033,0.7,0.45,3,-1,0,508,2
0.0226657248166,0.00780875201266,-0.00621105994641,1.63739749033,0.0230000000002,0.45,1,3,-1,508,2
0.0274888631788,0.00781237001545,1.87412969796,0.035044031137,0.457,0.45,2,2,1,509,2
0.0512089063622,0.00781248350419,0.00789610628899,1.75004609663,0.477,0.45,3,3,1,510,2
0.0298246711487,0.00781249784271,1.20779920702,0.0161244604074,0.472,0.45,2,2,1,511,2
0.0411637651767,0.00781249978238,1.28591144539,0.0362981809304,0.559,0.45,1,2,-1,512,2
0.0329824392283,0.00781249998305,0.0239133915548,0.032217182624,0.7,0.45,0,-1,0,514,2
1.01263966008,0.0307338096382,0.00943677181731,0.136918551273,0.0670000000002,0.45,2,0,-1,514,2
1.92385710534,-0.00669537007634,-0.0332850122172,0.10152517924,0.61,0.45,0,0,1,515,2
0.0712948629487,1.57005948138,0.0110028305588,0.0307373714378,0.553,0.45,1,1,1,516,2
0.0532209393257,0.000156540839702,0.077367041822,1.73914377324,0.7,0.45,3,-1,0,518,2
0.0532209393257,0.000156540839702,0.077367041822,1.73914377324,0.0100000000002,0.45,0,3,-1,518,2
0.054663171377,4.47426667693e-06,0.00948892027892,1.11854363849,0.448,0.45,3,3,2,519,2
0.0582445004994,5.83720761282e-07,1.14774993756,-0.00595071886875,0.426,0.45,2,2,2,520,2
0.066603299781,0.0257759277518,1.69822068289,0.000499927907124,0.487,0.45,1,2,-1,521,2
0.0576363529924,0.00159858872613,0.0236560274248,0.00969444819013,0.7,0.45,2,-1,0,523,2
0.0645908485495,0.00184502847432,0.0181528151511,1.40445001193,0.537,0.45,3,3,1,523,2
0.92518954276,0.000129883277887,0.0143014405232,0.062519053234,0.7,0.45,1,-1,0,525,2
1.80803948289,0.000118355856241,0.0115462661536,0.0625168131856,0.0520000000002,0.45,0,0,2,525,2
0.0837498386407,1.50489065585,0.0632908812885,0.0965562414441,0.564,0.45,1,1,1,526,2
0.0494236841561,-0.0076265121292,0.0522244351616,1.48995471085,0.7,0.45,3,-1,0,528,2
0.0494236841561,-0.0076265121292,0.0522244351616,1.48995471085,0.0100000000002,0.45,0,3,-1,528,2
0.0604232099252,-0.00780893904783,1.2355318062,0.0625729959293,0.584,0.45,2,2,1,529,2
2.28280874024,0.0244865252454,0.00036796948821,0.0625090688433,0.575,0.45,0,0,1,530,2
0.0629571847273,1.26571644482,3.6219214564e-05,0.0625012363817,0.542,0.45,1,1,1,531,2
0.0614676833986,0.00866165462502,-0.00743674245704,1.10863402668,0.503,0.45,3,3,1,532,2
0.0925360920734,0.0139423830082,1.17546350387,-0.0149086863372,0.413,0.45,2,2,2,533,2
0.0823540138392,0.000963443307161,0.0223680929206,1.04204704656,0.561,0.45,3,3,1,534,2
0.0913217873877,1.23180869085,0.020363740725,0.0708345478528,0.643,0.45,1,1,1,535,2
0.0770162446144,-0.00512610072986,1.25235230515,0.0653557216887,0.462,0.45,2,2,1,536,2
0.0774774135481,1.33401941307,0.00798814708939,0.0483719996229,0.606,0.45,1,1,1,537,2
1.70711049288,0.00154968668697,0.00783640755006,0.0470904506347,0.559,0.45,0,0,1,538,2
0.0372856313483,-0.00417217244225,1.1260735113,0.115825735213,0.38,0.45,2,2,2,539,2
1.44720278241,8.7737357551e-05,0.00812404378312,0.017343426757,0.568,0.45,0,0,1,540,2
0.0798131288368,-0.00690474266199,0.00784790378492,2.00166278702,0.564,0.45,3,3,1,541,2
1.35161120124,0.00406807034049,0.00781734994052,0.17572361488,0.529,0.45,0,0,1,542,2
0.0572582050125,-0.00330417179778,0.0302422995765,0.0429067282908,0.7,0.45,3,-1,0,544,2
0.0600650755814,-0.00953716945202,0.0282402859534,1.01164296216,0.0460000000002,0.45,1,3,-1,544,2
0.0619734192085,-0.00042538003149,1.01673079348,0.0305244038879,0.337,0.45,2,2,2,545,2
0.0667781949022,-3.84314416408e-05,-0.0116061786362,1.11996862004,0.436,0.45,3,3,2,546,2
0.0792464346294,-3.50352997458e-06,1.04810606976,-0.0290163865511,0.532,0.45,2,2,1,547,2
0.0649536611432,1.16507516219,0.0590914760573,0.183532945362,0.406,0.45,1,1,2,548,2
0.0491756027549,-0.0202663152205,0.0250243322469,1.16542943033,0.503,0.45,3,3,1,549,2
2.28115409493,-0.0151666583807,0.0150272292468,0.0647705267752,0.472,0.45,0,0,1,550,2
0.031476928449,-0.00886262793914,1.06190760677,0.150940798303,0.334,0.45,2,2,2,551,2
1.46561939166,-0.00272027061371,-0.00774793514233,0.0622336061539,0.452,0.45,0,0,1,552,2
0.037388780996,1.01703582241,-0.00780802824802,0.0543376871246,0.558,0.45,1,1,1,553,2
3.15632975308,0.00878411372621,0.00750107936889,0.0474188463268,0.586,0.45,0,0,1,554,2
0.0516025501342,0.00794439069614,-0.00705911876901,1.23783140594,0.504,0.45,3,3,1,555,2
0.059461661191,0.00783351136601,1.64304781304,0.00220465443488,0.415,0.45,2,2,2,556,2
0.0741875127577,2.05458432139,0.00924222767461,0.0312846509441,0.399,0.45,1,1,2,557,2
0.0633330085818,0.0156387251466,0.0223322921858,0.0345616308593,0.7,0.45,2,-1,0,559,2
0.0381319535245,0.0156340057258,1.17722303103,0.0406300643073,0.132,0.45,3,2,-1,559,2
3.87385409741,0.0156252528747,0.00802070622804,0.0182751677227,0.61,0.45,1,0,-1,560,2
0.0504838004636,0.0156250217887,0.00783025142284,0.0246756857287,0.7,0.45,0,-1,0,562,2
0.0570825392132,1.55958310058,0.00781645693366,0.0237127774621,0.528,0.45,1,1,1,562,2
0.0569149309363,0.0157536440205,1.05844092362,0.0177536333635,0.407,0.45,3,2,-1,563,2
0.0639200141125,0.0279355372813,0.000116057351978,0.0565132276125,0.7,0.45,0,-1,0,565,2
0.0515531100578,0.0116336610604,0.0199051027316,0.143768991083,0.7,0.45,2,-1,0,566,2
1.04310503201,0.0134074783561,0.0100000297652,0.0593016413381,0.586,0.45,0,0,1,566,2
0.0444643303279,0.00893478579575,1.28373018785,0.0530433822802,0.41,0.45,2,2,2,567,2
0.0523339442406,0.0125064333325,0.0351255030329,1.91913410275,0.425,0.45,3,3,2,568,2
0.0480986601424,1.05671194226,0.0164615149953,0.0656379567128,0.659,0.45,1,1,1,569,2
0.0645320086899,0.0184632750781,1.00389754858,0.0607795984167,0.455,0.45,2,2,1,570,2
0.0529010563491,1.19240559877,0.0027880798287,0.0535756696039,0.559,0.45,1,1,1,571,2
0.0415518984015,0.0086803622014,0.044602468916,1.27540555,0.578,0.45,3,3,1,572,2
0.0616897223968,0.0152694612683,1.3258517735,0.0187014093483,0.623,0.45,2,2,1,573,2
2.07450097458,0.00888365634051,0.0240442076486,0.0450965649506,0.543,0.45,0,0,1,574,2
0.100680668895,0.0298470941376,0.0835135704579,1.12792153571,0.7,0.45,3,-1,0,576,2
0.100680668895,0.0298470941376,0.0835135704579,1.12792153571,0.00100000000023,0.45,0,3,-1,576,2
0.0876093276491,1.7884520172,0.00114256731972,0.0237007037432,0.55,0.45,1,1,1,577,2
1.93797353485,0.0103118633563,0.000119517755553,0.0607386787201,0.605,0.45,0,0,1,578,2
0.103029524978,0.0188296031071,1.0046818205,0.118070939252,0.431,0.45,2,2,2,579,2
0.124332717959,1.37924971026,0.0053054608213,0.0340081455223,0.644,0.45,1,1,1,580,2
0.0694453605678,0.000230959124432,0.0055294365728,1.33111194748,0.529,0.45,3,3,1,581,2
0.0530206543115,0.00440298813979,0.136633576328,0.039364171458,0.7,0.45,2,-1,0,583,2
0.0493092274518,0.000735751154868,-0.000728151326071,1.22488987663,0.589,0.45,3,3,1,583,2
0.0713121769384,1.71010787159,-0.00712859715646,0.00964026591564,0.658,0.45,1,1,1,584,2
1.02797521068,0.0078878529368,0.0103651607179,0.00390796864089,0.609,0.45,0,0,1,585,2
0.0478498785465,1.43309538488,-0.00682013065391,0.0148427967802,0.481,0.45,1,1,1,586,2
0.0545222539821,0.00798694876431,1.44898258848,0.0332048935159,0.385,0.45,2,2,2,587,2
1.83820554633,0.00781813732133,7.8384934132e-05,0.0321573906421,0.571,0.45,0,0,1,588,2
0.0147334880558,0.00781309054653,7.10148071392e-06,1.86316243597,0.626,0.45,3,3,1,589,2
0.0309354133042,1.3022169408,6.68385636282e-07,0.0150932489298,0.7,0.45,0,-1,0,591,2
0.0309354133042,1.3022169408,6.68385636282e-07,0.0150932489298,0.0160000000002,0.45,1,1,2,591,2
0.0478399040591,0.0188840910457,2.00081768392,0.0205692615532,0.615,0.45,2,2,1,592,2
0.078890806448,0.0298527888448,-0.0487591149302,1.6204531285,0.491,0.45,3,3,1,593,2
0.0545849492086,1.45109116988,-0.00124839762409,0.0196273106356,0.594,0.45,1,1,1,594,2
0.0556301731797,0.00795396628511,0.0127788544887,2.0735432614,0.542,0.45,3,3,1,595,2
0.0620988515277,0.00782634886715,1.36410996787,0.0705108223879,0.446,0.45,2,2,2,596,2
1.03795470967,0.0159142615733,0.00537174080755,0.104486091227,0.49,0.45,0,0,1,597,2
0.0861120887791,0.0225562027447,0.0142999786033,1.46105366706,0.592,0.45,3,3,1,598,2
1.89995427562,0.0096242425795,0.0066164931114,0.0340772130446,0.54,0.45,0,0,1,599,2
0.0713479678261,0.0182927335155,0.04146168337,0.0572514772029,0.7,0.45,2,-1,0,601,2
0.0696226401166,0.00895484376533,1.92902749651,0.0971112303778,0.25,0.45,1,2,-1,601,2
1.07966435978,0.308044539651,0.00658226005264,-0.0773721020555,0.577,0.45,0,0,1,602,2
0.0815530899674,0.00647227769157,0.0896900523134,2.07070801303,0.561,0.45,3,3,1,603,2
0.0632761378379,-0.00997730633212,1.18644894969,0.0317555342708,0.443,0.45,2,2,2,604,2
0.0653716768309,1.39117505703,0.0635413008667,0.0190259996055,0.561,0.45,1,1,1,605,2
0.0610048283379,0.00118337992067,1.23313499887,0.032641071699,0.503,0.45,2,2,1,606,2
0.0721981084533,0.000112261947356,0.0234649142352,1.22229926793,0.491,0.45,3,3,1,607,2
0.0642751537103,1.46941825667,0.0234386302278,0.0287924508998,0.652,0.45,1,1,1,608,2
4.32976898314,0.000113793949741,0.023437699708,0.0308650213517,0.527,0.45,0,0,1,609,2
0.0556210993731,1.04519971151,0.022448496325,0.0404221935971,0.558,0.45,1,1,1,610,2
0.0552659177934,0.000741656029905,0.0232995002836,1.31142333734,0.512,0.45,3,3,1,611,2
2.04234162528,7.29032903064e-05,0.0175346336907,-0.0130410624591,0.489,0.45,0,0,1,612,2
0.0417035465625,1.24332921447e-05,1.20004464215,0.028837242682,0.377,0.45,2,2,2,613,2
2.80251997977,1.31376384127e-06,0.000421984611708,0.0297964718141,0.427,0.45,0,0,2,614,2
0.0748972093053,1.74029220812e-07,1.43110903264,0.0201736110299,0.401,0.45,2,2,2,615,2
0.0594135861492,1.62378868129e-08,0.0158770220688,1.77047411505,0.493,0.45,3,3,1,616,2
0.063640542598,0.0139923998324,0.0156391430698,0.00783590712177,0.7,0.45,1,-1,0,618,2
0.399784515873,1.43794392187,0.0156365742831,0.00783059341263,0.0760000000002,0.45,2,1,-1,618,2
0.0379705402165,0.0862343161768,0.0284281721009,0.00372081398928,0.7,0.45,1,-1,0,620,2
0.0440678138947,0.0398272019591,-0.00432450674809,1.50370330028,0.624,0.45,3,3,1,620,2
1.83621912591,-0.00949282363444,0.00211464988266,0.0626024026763,0.55,0.45,0,0,1,621,2
0.0742146773197,1.25900536335,0.04215025431,0.129385597724,0.51,0.45,1,1,1,622,2
2.34228874217,-0.00933340771771,0.0510548859348,0.113052613888,0.527,0.45,0,0,1,623,2
0.0278006820361,0.00682506053837,0.0274209477617,0.201760773745,0.7,0.45,3,-1,0,625,2
0.036338104896,0.00766501543473,1.56412569346,0.0613845900191,0.659,0.45,2,2,1,625,2
2.72263402016,0.00779005525206,0.0236433156071,0.0488476910884,0.599,0.45,0,0,1,626,2
0.0608937622762,0.000940586672595,0.0144135188035,1.27448693548,0.588,0.45,3,3,1,627,2
0.0515617811794,0.00691331160931,1.25879685626,0.0344890159571,0.535,0.45,2,2,1,628,2
0.0489120995038,1.37312153579,0.000424448093185,0.0347144007413,0.428,0.45,1,1,2,629,2
0.058056984659,0.00014254364119,-0.0113311676602,1.78921346147,0.475,0.45,3,3,1,630,2
0.0486496713932,0.0854613099837,0.0286526059822,0.0280074775771,0.7,0.45,1,-1,0,632,2
0.057035753739,1.04883764153,0.0169927137111,0.0261792817473,0.152,0.45,2,1,-1,632,2
2.13249968419,0.00781777606252,-0.00707714637325,0.0562380727563,0.591,0.45,0,0,1,633,2
0.0794445301806,0.00367214309924,1.20995461277,0.0340594846022,0.477,0.45,1,2,-1,634,2
1.64225730291,0.00755098103964,0.01996769512,-0.0114704147613,0.682,0.45,0,0,1,635,2
0.0745575495591,1.25855073834,0.016794792151,0.0285442446552,0.418,0.45,2,1,-1,636,2
0.0519289760778,0.00296891674498,0.0266497247357,1.6063663838,0.555,0.45,3,3,1,637,2
1.05754986345,0.00571426303469,0.0319128898256,0.0474871036844,0.501,0.45,0,0,1,638,2
0.0412519309664,1.34574930457,0.00919262156354,0.0131001681878,0.617,0.45,1,1,1,639,2
0.0414777677547,0.00795430641288,0.113200472362,0.0300543233383,0.7,0.45,3,-1,0,641,2
0.0372194110425,0.00789302499909,-0.0318139600896,1.92181969081,0.156,0.45,2,3,-1,641,2
0.0480302467045,0.0133672669189,-0.0161887459465,2.42789555276,0.7,0.45,3,-1,0,643,2
0.0480302467045,0.0133672669189,-0.0161887459465,2.42789555276,0.0140000000003,0.45,1,3,-1,643,2
0.0675883005962,1.46557276459,0.0149376181333,0.0526164943406,0.486,0.45,2,1,-1,644,2
0.0743755792563,1.03642313637,0.0252746267196,0.040609178946,0.605,0.45,0,1,-1,645,2
0.0661159249135,0.0235884919124,0.00601375890493,1.43425381669,0.7,0.45,3,-1,0,647,2
0.0661159249135,0.0235884919124,0.00601375890493,1.43425381669,0.0220000000003,0.45,0,3,-1,647,2
0.0645093139578,0.0234406323581,1.19155054107,0.0241305195145,0.558,0.45,2,2,1,648,2
0.0640134514659,1.02416825069,0.0242916577518,0.023563635597,0.409,0.45,1,1,2,649,2
1.84518892607,0.0314103863185,0.0235119955895,0.0234571046358,0.328,0.45,0,0,2,650,2
0.0866203284579,-0.00779217220693,0.0156341713618,1.11691866516,0.7,0.45,3,-1,0,652,3
0.0866203284579,-0.00779217220693,0.0156341713618,1.11691866516,0.109,0.45,2,3,-1,652,3
0.35226351053,1.75114925782,0.0742492770734,0.309997671788,0.406,0.45,1,1,2,653,3
2.4202134498,-0.0149001247406,0.00380598627366,0.103080819318,0.312,0.45,0,0,2,654,3
0.0179772479676,0.0103858528895,2.13915864753,0.196152196658,0.614,0.45,2,2,1,655,3
1.26432309943,0.014997424658,0.00846174332146,0.0797651096755,0.576,0.45,0,0,1,656,3
0.0246845697578,1.22804152543,0.00787622030576,0.044067042083,0.509,0.45,1,1,1,657,3
0.045878783225,0.00762287389809,1.11942185701,0.0359823784469,0.32,0.45,2,2,2,658,3
0.0403683921522,0.00285575682875,0.00797492917633,1.60615035491,0.325,0.45,3,3,2,659,3
2.42658730075,0.000203127984316,0.0150715369465,0.0315896775474,0.5,0.45,0,0,1,660,3
0.0742275532964,3.78558637937e-05,1.43362445678,0.0225951858856,0.364,0.45,3,2,-1,661,3
0.0666629138557,1.10293509953,0.0441024812149,0.0294745575742,0.593,0.45,1,1,1,662,3
0.079001604236,0.0247514875171,-0.0103556927346,1.79077964671,0.536,0.45,3,3,1,663,3
1.95215992128,0.0235542405334,0.0200194858044,0.0707498589462,0.563,0.45,0,0,1,664,3
0.0572691482626,0.025813019935,0.0186342579178,0.0417846510082,0.7,0.45,1,-1,0,666,3
0.0624504773079,0.0239000064542,1.9032183651,0.0540872414159,0.544,0.45,2,2,1,666,3
0.0705394132128,1.23624645996,0.0314092741397,0.0515633062513,0.617,0.45,1,1,1,667,3
1.10223565123,0.0246660283409,0.02036697173,0.0533462973467,0.509,0.45,0,0,1,668,3
0.0987581757918,0.023567280698,1.13813871509,0.0482365317953,0.431,0.45,2,2,2,669,3
0.084929049415,0.0234496865815,-0.0209431301852,1.23927464363,0.514,0.45,3,3,1,670,3
0.0851925246022,0.0234395809261,1.20942488651,0.0787558021239,0.401,0.45,2,2,2,671,3
1.50835101354,0.0253049814862,-0.0071270219227,0.0918309131862,0.478,0.45,0,0,1,672,3
0.0336233188149,0.0238246113352,-0.00777509013444,0.784491258129,0.7,0.45,3,-1,0,674,3
0.0304218178166,1.36893172462,-0.013110908265,0.0707963592674,0.512,0.45,1,1,1,674,3
0.0353292339245,0.0196432766644,-0.00148155694334,1.1808646717,0.49,0.45,3,3,1,675,3
1.85802600813,0.00854754784058,0.014789331164,0.163003968915,0.505,0.45,0,0,1,676,3
0.0679735317524,0.00785897407296,0.0198331023671,0.0989098061492,0.7,0.45,2,-1,0,678,3
0.0771827853335,0.0114194460463,1.52321232155,0.119339385403,0.167,0.45,1,2,-1,678,3
0.0755776988339,0.00167206794322,1.62313504933,0.0722987749581,0.435,0.45,2,2,2,679,3
1.95244237003,0.0119582582331,0.0176236708695,0.0496204363867,0.512,0.45,0,0,1,680,3
0.0107866266878,0.00679046821238,1.05979115371,0.0420969778973,0.421,0.45,1,2,-1,681,3
0.171022371095,1.45841783208,0.0414849139563,0.0997167255483,0.605,0.45,0,1,-1,682,3
0.0416808469167,0.0324875533384,0.161094551377,0.00868365696551,0.7,0.45,3,-1,0,684,3
0.0330327143475,0.0322351414176,0.104332381266,1.10145305494,0.0730000000003,0.45,1,3,-1,684,3
0.0405412056081,0.0312782597474,-0.00347819571202,1.57935481772,0.529,0.45,3,3,1,685,3
0.0556022912905,0.0312542129242,1.48187802964,0.0299903404682,0.462,0.45,2,2,1,686,3
0.035824473461,0.0233794258382,-0.0113353105512,1.55201231081,0.538,0.45,3,3,1,687,3
0.0640290603459,0.0184789456134,1.15004709404,0.238310821384,0.412,0.45,2,2,2,688,3
1.23917491087,0.0301439752695,0.000142061764572,0.0841892362313,0.49,0.45,0,0,1,689,3
0.0591333247357,1.21604603279,0.0057209990925,0.142936837939,0.59,0.45,1,1,1,690,3
0.0628892186774,0.0284626793125,1.6635430892,0.0823743170348,0.391,0.45,2,2,2,691,3
1.26078883667,0.0157408944669,-0.0135516198732,0.0836226634865,0.473,0.45,1,0,-1,692,3
0.087137552942,1.02203408871,0.00501805677674,0.0623385175232,0.572,0.45,0,1,-1,693,3
0.0841823124152,0.0238448030967,1.1003738233,0.117252541606,0.7,0.45,2,-1,0,695,3
0.0841823124152,0.0238448030967,1.1003738233,0.117252541606,0.00300000000027,0.45,3,2,-1,695,3
0.0743652823121,1.73067069424,8.14988334263e-05,-0.00120164983816,0.686,0.45,1,1,1,696,3
0.0629237764297,0.0313600978697,0.0166350046408,0.00209615624281,0.7,0.45,3,-1,0,698,3
1.07639682804,0.0167003537656,0.0205253614153,-0.172283359882,0.596,0.45,0,0,1,698,3
0.0958607519186,0.0357246287054,0.0285094083081,1.06513006519,0.519,0.45,3,3,1,699,3
1.70610981268,0.0171779317002,0.00223774970509,0.0730317663172,0.59,0.45,0,0,1,700,3
0.0782254929325,1.24461782191,0.00123870289728,0.0555356338619,0.55,0.45,1,1,1,701,3
0.0565157909591,0.0177971526429,1.56840922788,0.03657579368,0.416,0.45,2,2,2,702,3
1.25495877344,0.0157793169986,0.0159841710159,0.0506231424855,0.467,0.45,1,0,-1,703,3
0.0394988460379,0.00164708373959,0.0156428740142,0.047595092331,0.7,0.45,0,-1,0,705,3
0.0396940055796,0.0418767332967,1.84010892623,-0.00743661882326,0.667,0.45,2,2,1,705,3
1.76374348874,-0.00154314349853,0.0421121678276,0.0362217540652,0.689,0.45,0,0,1,706,3
0.0734100525261,0.00953088682314,0.0528939466173,1.35358706485,0.563,0.45,3,3,1,707,3
0.0686214070902,1.28253000764,0.0230991656925,0.0538659989578,0.585,0.45,1,1,1,708,3
0.072094692784,0.000414697479027,0.0133092222161,1.17432392481,0.582,0.45,3,3,1,709,3
0.0677973276605,5.85246392406e-05,1.04319769399,0.050750729309,0.454,0.45,2,2,1,710,3
0.052912793096,5.28080136131e-06,-0.00378832694473,1.33965947392,0.553,0.45,3,3,1,711,3
0.074671209243,1.39538515796,0.00775272291003,0.0839049321877,0.617,0.45,1,1,1,712,3
1.62179692195,-0.0072498719614,0.017703473471,0.0775196444055,0.584,0.45,0,0,1,713,3
0.0618030103636,1.0881083791,-0.00853632674434,0.06877973779,0.426,0.45,2,1,-1,714,3
0.0719085168237,0.0083207846002,0.0142940176846,0.0778141787713,0.7,0.45,1,-1,0,716,3
0.0681308550835,0.00789888940993,1.09832073401,0.0781495226622,0.584,0.45,2,2,1,716,3
2.09774796803,0.00326162405724,-0.0217354268283,0.0721286136733,0.457,0.45,0,0,1,717,3
0.100465438883,1.0075933828,-0.00519265114102,0.0417957608505,0.552,0.45,1,1,1,718,3
0.0862926530015,0.00137419605775,1.1936807425,0.0490182351593,0.369,0.45,3,2,-1,719,3
1.04105324106,4.61856719076e-05,0.0196445407073,0.0551052403067,0.551,0.45,0,0,1,720,3
0.089553842463,4.8519823943e-06,0.0648639529149,1.13204081273,0.6,0.45,3,3,1,721,3
0.102575692241,1.0188681574e-06,1.09662548397,-0.00588196163924,0.419,0.45,2,2,2,722,3
0.0987345634636,1.0449720933e-07,-0.0912624724602,1.14477423715,0.478,0.45,3,3,1,723,3
0.100673156413,6.57257803738e-09,0.0167128100404,0.0834881418929,0.7,0.45,2,-1,0,725,3
0.0717719707048,1.33990140561,0.0317795802537,0.0792699598909,0.675,0.45,1,1,1,725,3
1.25524137769,0.00570270821905,0.0103025907251,0.127604018853,0.553,0.45,0,0,1,726,3
0.0570412747439,0.00643698231349,1.01014254471,0.0537182648387,0.488,0.45,1,2,-1,727,3
0.078239042229,-0.00647931559637,1.27417767521,0.0545772165435,0.534,0.45,2,2,1,728,3
1.66456556736,-0.00767077056066,0.0169912023084,0.00481298452928,0.584,0.45,0,0,1,729,3
0.0294226153879,0.00371366090778,0.0384884154441,0.00736993052463,0.7,0.45,3,-1,0,731,3
0.043962428879,1.62932668271,-0.0185825710287,0.0456547487491,0.627,0.45,1,1,1,731,3
0.05106378108,-0.015357422318,0.0187920849227,1.06425735646,0.673,0.45,3,3,1,732,3
1.56521593723,-0.0110106892976,0.00479449956535,0.0486870438116,0.627,0.45,0,0,1,733,3
0.0392118963623,-0.00233020834196,1.63273648056,0.055298007456,0.503,0.45,2,2,1,734,3
0.0345350326621,-0.000275002839575,0.0677212942919,1.13872191288,0.517,0.45,3,3,1,735,3
0.299338758724,-0.00532892658158,0.0269039723818,0.035817845147,0.7,0.45,1,-1,0,737,3
1.63755532868,0.0135335688477,0.0108827175818,0.0585207663147,0.584,0.45,0,0,1,737,3
0.0861153624554,0.00131336936621,1.13285559816,0.278108767142,0.616,0.45,2,2,1,738,3
1.88692004654,0.0114245207895,-0.00711227675178,0.033207456226,0.61,0.45,0,0,1,739,3
0.0860469301169,1.30547008007,-0.007735723726,0.0364419905797,0.568,0.45,1,1,1,740,3
0.0681049091432,0.000774176898497,1.27902557505,0.0382090712,0.463,0.45,2,2,1,741,3
0.076567764436,3.04781647116e-05,0.0241330696181,0.201925468541,0.7,0.45,3,-1,0,743,3
1.1041444719,0.122469682826,0.00323404676917,0.0101248087517,0.7,0.45,0,-1,0,744,3
1.1041444719,0.122469682826,0.00323404676917,0.0101248087517,0.0230000000003,0.45,3,0,-1,744,3
0.096116394438,0.000990227977959,0.155993803891,0.0146361443994,0.7,0.45,2,-1,0,746,3
0.0619991806949,1.18101156893,0.0302371546083,0.0304707387712,0.501,0.45,1,1,1,746,3
0.0468540778201,9.48759104589e-05,0.0158121925596,0.198230796223,0.7,0.45,3,-1,0,748,3
0.144095167104,0.161031164068,0.0022047403881,0.106654457742,0.7,0.45,0,-1,0,749,3
0.167143000849,-0.00940450455169,0.0101986667329,0.0705058622507,0.7,0.45,1,-1,0,750,3
0.105536992591,-0.0104140581461,1.17961602351,0.0635739899005,0.68,0.45,2,2,1,750,3
0.138770813252,1.2283182585,-0.0108211082337,0.0329117069385,0.627,0.45,1,1,1,751,3
1.41130738393,-0.0115596668618,-0.00129056378358,0.0105030776086,0.543,0.45,0,0,1,752,3
0.0601096284834,-0.00396814093942,1.43709363521,0.0179439401946,0.489,0.45,2,2,1,753,3
0.437375261558,-0.00942069323696,0.00164857447544,0.0404057706861,0.7,0.45,0,-1,0,755,3
0.106078922487,-0.00804551782159,0.655702784788,0.0325593242595,0.7,0.45,3,-1,0,756,3
0.054726864888,-0.00385335427554,0.123354679735,1.62884238707,0.127,0.45,1,3,-1,756,3
0.0570790650569,0.0135532386052,0.000916917385526,1.09384430314,0.55,0.45,3,3,1,757,3
0.0571210736256,0.0126682167786,1.06879605914,0.0625076520666,0.47,0.45,2,2,1,758,3
0.060593906221,0.0126159204376,-0.00730625028197,1.34072033043,0.483,0.45,3,3,1,759,3
0.0566180521789,0.00773011998977,1.15032066156,0.0378084399951,0.415,0.45,2,2,2,760,3
0.0561584849711,1.61535693587,0.0130338199542,0.06043174979,0.604,0.45,1,1,1,761,3
1.56804906911,-0.0147085108731,0.00778484839573,0.0512503768383,0.512,0.45,0,0,1,762,3
0.0722799968195,-0.00363330513156,1.08271972627,0.0376427353772,0.485,0.45,2,2,1,763,3
1.01079995108,-0.000448336870585,0.000471874298327,0.0462516456543,0.479,0.45,0,0,1,764,3
0.0367262287846,1.13704223451,4.09815491957e-05,0.0592249651705,0.503,0.45,1,1,1,765,3
0.0516643514354,0.00273020349394,1.43176256828,0.0411046040559,0.327,0.45,3,2,-1,766,3
1.27884624529,7.04391214539e-05,0.0218463054392,-0.0303588193953,0.7,0.45,0,-1,0,768,3
1.27884624529,7.04391214539e-05,0.0218463054392,-0.0303588193953,0.0090000000003,0.45,3,0,-1,768,3
0.0463541029789,1.82441618934,0.0115786125962,-5.20543147657e-05,0.602,0.45,1,1,1,769,3
0.0592293486753,0.000215698362755,1.65177158459,0.00287558120769,0.493,0.45,2,2,1,770,3
0.0582153356412,1.97276319305e-05,0.00515503047456,1.50362507729,0.392,0.45,3,3,2,771,3
1.55312998656,2.05823108423e-06,0.00232988446709,0.00428799253776,0.437,0.45,0,0,2,772,3
0.0899733443122,0.149772673454,0.02595591261,0.0296839196877,0.7,0.45,1,-1,0,774,3
0.0910076926876,0.000843765847437,1.19990440182,0.00309552873591,0.502,0.45,2,2,1,774,3
1.89139489262,0.00278150147814,0.00840073177808,0.0260894742554,0.533,0.45,0,0,1,775,3
0.10632131628,0.00534193365098,1.1183741417,0.0239700772891,0.363,0.45,2,2,2,776,3
1.02095103925,0.00758102946423,0.00800607271496,0.0234878650478,0.45,0.45,1,0,-1,777,3
0.0553736032246,0.007788666691,1.09324576069,0.023442686355,0.509,0.45,3,2,-1,778,3
0.0572766997902,0.00781090111456,-0.00716079944398,-0.010007420339,0.7,0.45,1,-1,0,780,3
0.0607722764871,1.51839423837,-0.00341489664218,-0.00517697437353,0.0970000000003,0.45,0,1,-1,780,3
0.0716288778584,-0.00765299293123,1.13320106058,0.00369256341868,0.52,0.45,3,2,-1,781,3
0.0618914368652,-0.00780134320524,0.0090275176816,0.193001420994,0.7,0.45,2,-1,0,783,3
0.057637326319,1.12885832732,0.00856785158833,0.0625860848171,0.152,0.45,3,1,-1,783,3
2.7335755369,-0.00416165762572,0.0163213348967,0.037891429012,0.568,0.45,0,0,1,784,3
0.0750651479315,0.00720819067357,1.0460767552,0.0550485467797,0.334,0.45,2,2,2,785,3
0.0612789955039,1.00180410545,-0.0113352367599,0.00604045779239,0.568,0.45,1,1,1,786,3
1.07896767233,0.016753853417,-0.001316013377,0.0191389457583,0.38,0.45,0,0,2,787,3
0.0884383340921,1.16747983524,0.00208365830724,0.0230569621463,0.584,0.45,1,1,1,788,3
0.0937465538691,0.0152768817133,1.02634791466,0.0231463812737,0.445,0.45,2,2,2,789,3
1.46375913013,0.00632737046262,-0.00760396631303,0.0212998290729,0.586,0.45,0,0,1,790,3
0.0815629071894,0.0249184874477,1.01337948714,0.0230606091888,0.464,0.45,3,2,-1,791,3
0.0849586592746,1.74461686105,0.0172461341739,0.0622849102034,0.573,0.45,1,1,1,792,3
0.0632480039815,0.0236082762826,0.00510470483396,1.56713138628,0.573,0.45,3,3,1,793,3
0.0799241776902,0.012054281908,1.03434112215,0.0313223241188,0.47,0.45,2,2,1,794,3
0.0676623530839,0.0222390276737,0.00807271613949,1.18046666465,0.49,0.45,3,3,1,795,3
2.22693858843,0.00932790654275,0.0017739832277,-0.00568474348681,0.522,0.45,0,0,1,796,3
0.10077794994,0.0154741999337,1.31798849357,0.0320992361377,0.421,0.45,2,2,2,797,3
0.0936861814678,1.24314925019,0.0140615980362,0.0356955005999,0.505,0.45,1,1,1,798,3
0.153236630642,-0.015550267263,0.0222020140209,0.0338154683867,0.7,0.45,2,-1,0,800,3
0.124957253276,-0.0155767055171,1.12462909545,0.0329974973989,0.136,0.45,0,2,-1,800,3
0.0796455677607,1.72524527351,0.0235536427268,0.0377053821551,0.597,0.45,1,1,1,801,3
0.0764029135249,0.0238284300477,0.00270137835896,1.29302865375,0.553,0.45,3,3,1,802,3
0.0812840294219,-0.00506057592942,1.11152860912,0.0248980657124,0.431,0.45,2,2,2,803,3
0.0682808990937,0.0208645280016,0.000517993708152,1.5589935248,0.585,0.45,3,3,1,804,3
0.0654655774403,0.573253413047,0.0123265598066,0.0774521238601,0.7,0.45,1,-1,0,806,3
0.0651668283086,1.34732789175,0.0126804347855,0.075201059637,0.0360000000003,0.45,0,1,-1,806,3
0.056654036375,-0.00768629447208,0.0155666223276,2.13962815073,0.672,0.45,3,3,1,807,3
0.0649004205633,0.00558006273824,1.42400692465,0.0312995208522,0.445,0.45,2,2,2,808,3
0.06862994747,1.59468321124,0.00820014123616,0.06744931942,0.655,0.45,1,1,1,809,3
1.04499897563,-0.0311876792354,-0.00435413722295,0.0982224567401,0.537,0.45,0,0,1,810,3
0.0307237322826,1.23668965664,-0.00076593894849,0.0673784959387,0.408,0.45,1,1,2,811,3
0.0219463985785,-0.0153580187702,1.23874661245,0.070545422992,0.402,0.45,2,2,2,812,3
0.0241027471965,0.913396826179,0.000412648311183,0.0869000025213,0.7,0.45,0,-1,0,814,3
0.0330168846354,1.49596958943,0.00037760014281,0.0816475735534,0.0530000000003,0.45,3,1,-1,814,3
1.1167383624,-0.00776999606581,1.02185851493e-05,0.0434375913493,0.546,0.45,0,0,1,815,3
0.102501666706,-0.0129933315779,1.02519419734,0.0291104623985,0.42,0.45,2,2,2,816,3
0.0820890314907,-0.00194021368807,-0.0155202930621,1.36163610802,0.374,0.45,3,3,2,817,3
0.0740364381235,1.38540004251,-0.00510079501845,0.0579518980084,0.574,0.45,1,1,1,818,3
0.0754573820017,0.000497319278669,0.0142042607243,1.54191361006,0.619,0.45,3,3,1,819,3
0.0790759232966,0.0812429901838,0.0405565508261,0.0813487409236,0.7,0.45,1,-1,0,821,3
0.0768119994355,1.66393186033,0.0210387750053,0.0775016113084,0.221,0.45,0,1,-1,821,3
0.0718720592108,0.0313478277751,1.25673367868,0.0867710224615,0.37,0.45,2,2,2,822,3
0.0740573225042,1.57985306931,0.00788979901436,0.0804099179788,0.354,0.45,1,1,2,823,3
1.41735811865,0.0240367996768,0.0078174965635,0.0693555590347,0.394,0.45,2,0,-1,824,3
0.0877051092893,0.298947681818,0.00564043091393,0.0470187651629,0.7,0.45,0,-1,0,826,3
0.0893025694556,0.0414568980812,0.049697046887,0.581220297595,0.7,0.45,3,-1,0,827,3
0.0865579746912,0.0412660098318,0.0467495997017,1.98487659736,0.0490000000003,0.45,2,3,-1,827,3
0.0664057508303,0.0246750454791,1.24366086059,0.0224510449596,0.479,0.45,3,2,-1,828,3
1.42431302802,0.0182793026095,0.00882701940125,0.0405102822748,0.563,0.45,0,0,1,829,3
0.0428294315902,1.54216696753,0.00090405206508,0.00793052758987,0.56,0.45,1,1,1,830,3
0.0440956268407,0.0159419087892,0.0113045005094,2.06821449244,0.585,0.45,3,3,1,831,3
0.966735634049,0.015647945862,0.00632948839658,0.0525400878693,0.7,0.45,1,-1,0,833,3
1.52527930214,0.0156460840823,0.00372055244783,0.0541940558468,0.0340000000003,0.45,2,0,-1,833,3
0.0495394909327,0.0156253418037,0.0153723486661,0.0501714981767,0.7,0.45,0,-1,0,835,3
1.02960835713,0.0172863838712,-0.00811198550971,-0.0166996324633,0.0530000000003,0.45,1,0,-1,835,3
0.1836508534,0.0303076616933,0.0158640351053,0.0368579903759,0.7,0.45,0,-1,0,837,3
1.33856501854,0.0304541108506,0.0158235317498,0.0359426032062,0.0800000000003,0.45,2,0,-1,837,3
0.089893988545,1.54015107464,0.00295160299392,0.0222460415067,0.493,0.45,1,1,1,838,3
0.0620275100707,0.0258807119888,1.42360914544,0.0257736736456,0.454,0.45,3,2,-1,839,3
1.67121370881,0.0235970378557,0.008259640694,0.0403500781286,0.587,0.45,0,0,1,840,3
0.0256639568,0.0234567944497,0.00786273565056,1.92480938365,0.587,0.45,3,3,1,841,3
0.0205416341867,0.0234410315178,1.50701522277,0.0460087941939,0.45,0.45,2,2,1,842,3
0.0311265316765,0.0234378687596,0.0157437898682,1.52764480505,0.499,0.45,3,3,1,843,3
0.0414579949774,1.18489727548,0.0156363469152,0.0477182166039,0.498,0.45,1,1,1,844,3
1.32941364444,0.00846941062797,0.00614148281267,0.0338002183802,0.393,0.45,0,0,2,845,3
0.0689482929188,0.00872808598328,1.5090152264,0.0496728897233,0.344,0.45,2,2,2,846,3
0.0666825594254,1.17388986068,0.0120522523731,0.0501822688894,0.699,0.45,1,1,1,847,3
0.0701995841155,0.00950332106246,1.76833444011,0.0177808467627,0.489,0.45,2,2,1,848,3
1.87693049895,-0.00925927688843,0.00764461837618,0.0433976835971,0.572,0.45,0,0,1,849,3
0.0341805831176,0.00626064261396,-0.00627920438762,1.76669381877,0.482,0.45,3,3,1,850,3
2.09719633264,0.00759215734849,0.0109418702186,0.0143434613985,0.426,0.45,0,0,2,851,3
0.0333490050753,0.00778634919191,1.1294143357,0.0553502975602,0.433,0.45,1,2,-1,852,3
0.0267104335713,0.00781043398706,0.0113639852382,2.61210100442,0.575,0.45,3,3,1,853,3
0.0357170874941,0.00781218603804,1.22358593939,0.085945301679,0.5,0.45,2,2,1,854,3
0.0461721978871,0.00781247322014,-0.0142981688542,1.29531739018,0.618,0.45,3,3,1,855,3
0.0451130764405,0.00781249590634,1.81247912514,0.045360679565,0.541,0.45,2,2,1,856,3
0.0362636650059,1.51448154541,0.000184654446733,0.0482463959279,0.53,0.45,1,1,1,857,3
1.60954321493,0.0085149531687,2.8236975306e-05,0.0471465480989,0.356,0.45,0,0,2,858,3
0.0740148209648,0.00784180190379,1.17922884574,0.046896676402,0.495,0.45,2,2,1,859,3
1.5245197073,0.00781643361804,-0.00243579503744,0.0803089051223,0.46,0.45,0,0,1,860,3
0.0873092998861,0.0473415530694,-0.00952041635707,0.0620546931957,0.7,0.45,1,-1,0,862,3
0.0792897765242,0.017374998918,1.35924629371,0.0491752626719,0.445,0.45,2,2,2,862,3
0.0808176942316,0.0158502701832,-0.0125509756734,1.86312211465,0.378,0.45,3,3,2,863,3
1.56103063057,0.015643365977,0.00928349822732,0.0141852566656,0.509,0.45,0,0,1,864,3
0.0738408883022,0.0061261804327,1.47338169268,0.0455352302559,0.438,0.45,3,2,-1,865,3
0.0768434772028,1.40406584603,0.0402191313105,0.0249690103943,0.606,0.45,1,1,1,866,3
0.0600396331443,0.0079787336947,0.0223769153613,2.05102915437,0.618,0.45,3,3,1,867,3
0.0474782103388,0.0297328516212,0.0810144520324,1.07832577755,0.638,0.45,3,3,1,868,4
0.12305803492,0.143282490831,1.3335296513,0.185971802985,0.534,0.45,2,2,1,869,4
0.0778926986302,1.67339308604,0.0484254490436,0.189979763855,0.404,0.45,1,1,2,870,4
1.7561047897,0.0276547083978,0.0571314847906,0.288533521046,0.332,0.45,0,0,2,871,4
0.0917718882762,0.077005802778,1.00333863769,0.218619173077,0.505,0.45,2,2,1,872,4
0.0743302683791,0.043491354795,0.0231054205574,0.137513965286,0.7,0.45,0,-1,0,874,4
0.122590695901,0.45514070709,0.0272788600249,0.136267492729,0.7,0.45,1,-1,0,875,4
0.0512217687199,0.0205480778452,0.0363093958002,2.04224697614,0.646,0.45,3,3,1,875,4
0.0648969280438,0.148213286573,0.0762324122874,0.0905004459016,0.7,0.45,1,-1,0,877,4
0.0623722867501,0.0132329678631,1.42211783929,0.0957008703495,0.484,0.45,2,2,1,877,4
0.0642174023487,0.00173107098056,-0.0119175285335,1.32478582777,0.415,0.45,3,3,2,878,4
1.77380650367,0.00731414872112,0.00645394702493,0.0859535300255,0.488,0.45,0,0,1,879,4
0.0541130816248,0.00775903405627,0.00766657235922,1.22558091358,0.527,0.45,3,3,1,880,4
0.0608596038755,0.00780437547933,1.54653478563,0.0625307684971,0.452,0.45,2,2,1,881,4
0.0559906868538,1.09952294261,0.000707050595717,0.0691263790598,0.273,0.45,0,1,-1,882,4
0.0242503496226,1.00014942388,2.03793051062e-05,0.0343072274391,0.437,0.45,1,1,2,883,4
2.1251288156,0.00127282233095,0.01202855872,0.0707823813237,0.525,0.45,0,0,1,884,4
0.0893422050784,0.00203842398184,1.1936606319,0.0639346701548,0.417,0.45,2,2,2,885,4
0.101933357807,1.13664740948,0.0169174908868,0.0511736711348,0.428,0.45,1,1,2,886,4
0.12382792112,0.0156859708129,1.39494822798,0.0492729449577,0.513,0.45,2,2,1,887,4
0.0514595672688,0.0156314083235,0.00612389729471,1.35673899299,0.484,0.45,3,3,1,888,4
2.24593202217,0.0156259013102,0.0111611226149,0.047172067732,0.433,0.45,0,0,2,889,4
0.0830349117516,0.0131714315923,0.00458000666489,1.50372873554,0.472,0.45,3,3,1,890,4
0.101934918942,1.4905018816,0.00750570568567,0.0450769232286,0.539,0.45,1,1,1,891,4
0.076314833849,3.54402100813e-05,0.134465873464,0.235957231037,0.7,0.45,3,-1,0,893,4
0.0738888733088,2.88941599258e-05,0.0780763445911,1.00710654,0.0620000000004,0.45,2,3,-1,893,4
2.01633121673,6.50288520809e-07,0.00826488590636,0.0798520493848,0.583,0.45,0,0,1,894,4
0.0581158346677,1.20055205219,-0.00129550675515,0.052511279543,0.583,0.45,1,1,1,895,4
2.03456979324,0.0079479302446,0.00707270488596,0.0578489214215,0.608,0.45,0,0,1,896,4
0.0605316790161,-0.000752014161667,1.55788695644,0.0503148605988,0.415,0.45,2,2,2,897,4
0.0620304205882,1.60896284991,-0.00511023310381,0.0615587927218,0.61,0.45,1,1,1,898,4
0.0608726615309,0.0158430683698,1.42381348162,0.0623562981831,0.533,0.45,2,2,1,899,4
0.0573536982613,0.0156477651535,-0.0074264676902,1.46907012645,0.429,0.45,3,3,2,900,4
1.49952592111,0.0105129847222,-0.00695875945256,0.0302218221286,0.506,0.45,1,0,-1,901,4
0.0674250587434,0.00604324894237,0.140783665559,1.26390501391,0.698,0.45,3,3,1,902,4
1.45422754042,0.00435837125514,0.0403713624692,0.0235060794657,0.7,0.45,0,-1,0,904,4
1.45422754042,0.00435837125514,0.0403713624692,0.0235060794657,0.0230000000004,0.45,3,0,-1,904,4
0.148928377585,1.381593436,0.0228578093195,0.0765079608434,0.588,0.45,1,1,1,905,4
0.0900051214618,0.000603519026852,1.44282488202,0.0740443111361,0.399,0.45,2,2,2,906,4
1.71488033536,-0.00968114157441,0.00687036176797,0.0964695709229,0.571,0.45,0,0,1,907,4
0.103934177176,1.28978624396,0.0144495841399,0.112982339369,0.581,0.45,1,1,1,908,4
1.75962954313,-0.00863374451251,0.0234582210714,0.0297902363417,0.557,0.45,0,0,1,909,4
0.0420224577551,-0.00086922302777,1.61030054435,0.0586227488533,0.496,0.45,2,2,1,910,4
1.09862360558,-0.000111342990262,-0.00458228936046,0.0423810569577,0.492,0.45,1,0,-1,911,4
0.0279014353406,0.0103212548369,-0.00762364207415,1.03002823257,0.625,0.45,3,3,1,912,4
0.0444893577481,0.0188897935342,1.43905266127,0.0675873856013,0.493,0.45,2,2,1,913,4
0.0365937370591,-0.00507678621932,-0.00428532041355,1.26646289015,0.475,0.45,3,3,1,914,4
1.55500241383,0.00594026199334,0.0270191032676,0.0358511125107,0.511,0.45,0,0,1,915,4
0.0296785094668,0.00669535674261,0.0611620641971,0.111536079277,0.7,0.45,3,-1,0,917,4
0.0259998109921,0.00735397669012,0.0117652199967,1.15317282612,0.313,0.45,0,3,-1,917,4
0.0476807227721,0.00778728197996,1.13804429069,0.0571085442036,0.578,0.45,2,2,1,918,4
0.0559418331446,1.27442692727,0.0150186009343,0.055460060163,0.512,0.45,1,1,1,919,4
1.2749552666,0.00083179326971,0.0155557839815,0.0371384817574,0.393,0.45,0,0,2,920,4
0.0755675926198,1.22016334143,0.000384414706898,0.0500498259885,0.483,0.45,1,1,1,921,4
0.0790303823672,0.000833811539718,1.14860716754,0.0624120576894,0.41,0.45,2,2,2,922,4
1.06448392193,0.00120823344364,-0.011681949161,0.0590520748383,0.53,0.45,0,0,1,923,4
0.0254111102044,0.0141943848896,0.0320766894156,0.195023372437,0.7,0.45,3,-1,0,925,4
0.0422069485774,0.0288973185005,1.04770107873,0.0393944352021,0.646,0.45,1,2,-1,925,4
0.041703741632,1.18197392203,0.489160552721,0.0392282131333,0.00400000000037,0.45,3,1,-1,926,4
0.0419531096165,-0.0077890944914,1.68050126186,0.0389544839323,0.52,0.45,2,2,1,927,4
0.0407232850028,-0.0078085563265,-0.0152445147805,1.0931657688,0.405,0.45,3,3,2,928,4
1.4014967496,-0.00781216303519,-0.0186294114359,0.0856026328149,0.522,0.45,0,0,1,929,4
0.0664445307359,0.00100247871978,1.00786908783,0.0244123961615,0.444,0.45,2,2,2,930,4
0.116043562108,1.3343678843,-0.0104237660212,0.0492037087731,0.542,0.45,1,1,1,931,4
0.0550606026749,-0.000821386160089,1.05759103329,0.0525347678302,0.493,0.45,2,2,1,932,4
1.12847187163,-0.0205361571882,0.0187004732894,0.1394355653,0.489,0.45,0,0,1,933,4
0.0752376204834,1.02690088683,0.000911446988735,0.0527536997082,0.652,0.45,1,1,1,934,4
0.0640352840266,-0.0136105409202,0.00849337829059,1.03610718707,0.483,0.45,3,3,1,935,4
0.0681806815982,-0.0154094687217,1.14106924957,0.0245530434979,0.414,0.45,2,2,2,936,4
0.0757692206668,-0.00963382891897,0.0266408290998,1.13816765945,0.527,0.45,3,3,1,937,4
0.0670674673657,0.793842343759,0.00451163525008,0.0218523879964,0.7,0.45,1,-1,0,939,4
1.30859816097,-0.00244913513872,-0.00483420172367,0.0995825373772,0.482,0.45,0,0,1,939,4
0.0870711254406,-0.00851838722306,1.09304823841,0.0666346425753,0.438,0.45,3,2,-1,940,4
1.18543059111,-0.01105325594,-0.00741220280673,0.0628205212334,0.586,0.45,0,0,1,941,4
0.0934902802439,1.08108495049,0.0174120734831,0.0625313365352,0.659,0.45,1,1,1,942,4
0.0968057346762,-0.0129457470381,1.30394430002,0.185228058497,0.427,0.45,2,2,2,943,4
1.35223981451,-0.0163131460831,0.0153165944969,0.0679611891415,0.694,0.45,0,0,1,944,4
0.0745754419857,-0.0166916513299,1.30453712928,0.0419545327811,0.583,0.45,2,2,1,945,4
0.0685547770069,1.25315972773,-0.0132048924654,0.0107747718746,0.446,0.45,1,1,2,946,4
0.0856347173219,0.00690318934555,-0.00729126932504,0.0332543134819,0.7,0.45,0,-1,0,948,4
1.13807571535,-0.00902015224241,-0.00744487242485,-0.00512549536079,0.137,0.45,3,0,-1,948,4
0.031398195181,-0.0154170864697,1.75417106486,0.0225499727864,0.554,0.45,2,2,1,949,4
0.039721457829,-0.0155955011405,0.00222126314237,1.33937494894,0.504,0.45,3,3,1,950,4
0.0655636743433,1.16933063437,0.0122245740982,0.0590699219866,0.643,0.45,1,1,1,951,4
0.0374099327507,-0.00730060823125,0.0281042629372,1.32509030263,0.537,0.45,3,3,1,952,4
0.0320896788076,1.15496874229,0.0141495636148,0.0822348527983,0.559,0.45,1,1,1,953,4
0.0291326785263,-0.00760477905183,1.10460197885,0.0901426902723,0.423,0.45,2,2,2,954,4
1.00473295309,0.00235593453162,0.00859542528707,0.0442463471516,0.478,0.45,0,0,1,955,4
0.061246635989,-0.00904155292598,1.14014033792,0.0923823536951,0.506,0.45,2,2,1,956,4
0.0823460067123,0.016978772141,-0.00732272995586,0.0516601025697,0.7,0.45,1,-1,0,958,4
0.161978268564,1.11990166948,0.00289056116424,0.0649036965189,0.0910000000004,0.45,0,1,-1,958,4
1.33383064424,0.0122521944437,0.0260990183108,0.0104179291735,0.371,0.45,1,0,-1,959,4
0.0660887168627,0.00425102316377,-0.0126567816686,0.782444972838,0.7,0.45,3,-1,0,961,4
1.2300006257,-0.00043087508415,0.00309141970223,0.0321097977379,0.543,0.45,0,0,1,961,4
0.044763947372,0.0145079602036,0.0194703142342,1.09922564546,0.674,0.45,3,3,1,962,4
0.0514817753224,0.0154047635411,1.20749118061,0.0581917644928,0.512,0.45,2,2,1,963,4
0.0754711371714,0.0163147696763,0.0185045364253,1.17168567738,0.7,0.45,3,-1,0,965,4
0.0754711371714,0.0163147696763,0.0185045364253,1.17168567738,0.0210000000004,0.45,0,3,-1,965,4
0.0544410266403,1.28948691667,0.000241704028246,0.101634108563,0.671,0.45,1,1,1,966,4
0.062387128463,0.00938961344459,1.06551072305,0.101579253696,0.452,0.45,2,2,1,967,4
1.23470981858,0.00789631969539,-0.00772068977307,0.0681925875728,0.454,0.45,0,0,1,968,4
0.0452344506013,0.0358195142094,1.37682469626,-0.112065966365,0.398,0.45,2,2,2,969,4
0.104956073645,1.23503377007,0.0243876952514,0.0463560649669,0.374,0.45,1,1,2,970,4
0.0498082023842,0.0239031121324,0.00618718703457,1.13895922892,0.523,0.45,3,3,1,971,4
0.0567282169927,0.733196302002,0.0150433629469,0.0784541476307,0.7,0.45,1,-1,0,973,4
1.35670569138,-0.0224881705815,-0.00322676017424,0.121517146915,0.641,0.45,0,0,1,973,4
0.0665720555696,0.0158744673491,-0.0077153182743,1.10432557369,0.555,0.45,3,3,1,974,4
0.0586040333846,0.022286063428,1.23293459515,0.0922023592639,0.475,0.45,2,2,1,975,4
0.0600077608611,0.0233396016792,0.00641121803547,1.18262370325,0.595,0.45,3,3,1,976,4
1.26531589043,0.0107697723369,-0.00647180916829,0.0425335984511,0.603,0.45,0,0,1,977,4
0.0624186654858,1.1512316599,-0.00763168924333,0.0571326403953,0.568,0.45,1,1,1,978,4
0.0703788642956,0.0102163751459,1.16461855406,0.0306636499629,0.398,0.45,2,2,2,979,4
0.0569745482026,0.243110147828,0.0144104651673,0.0666078645022,0.7,0.45,1,-1,0,981,4
1.27073401246,0.00342127730308,0.00940669871626,0.0635374342335,0.455,0.45,0,0,1,981,4
0.0124388770647,0.0905529393185,1.14057431757,0.0622017745239,0.545,0.45,2,2,1,982,4
1.40253252475,0.00742812466473,0.000149372057401,-0.000991751188472,0.546,0.45,0,0,1,983,4
0.0504313642316,0.000826110630532,1.20796733805e-05,1.35999480452,0.57,0.45,3,3,1,984,4
0.070009874939,0.0103128647925,1.12844801751,-0.0081951812072,0.465,0.45,2,2,1,985,4
0.0504826599552,0.0151589655617,-0.00429508040373,1.15423147478,0.554,0.45,3,3,1,986,4
0.138403086704,1.36770494851,-0.00753399395752,0.0475534959435,0.643,0.45,1,1,1,987,4
0.0509703229014,0.00826523542226,-0.0244778257961,1.38792354837,0.469,0.45,3,3,1,988,4
0.0582749560879,1.09490742333,-0.00175251748463,0.0783180943322,0.607,0.45,1,1,1,989,4
1.45028942013,0.0246470827155,-0.00421163381485,0.0762933680612,0.587,0.45,0,0,1,990,4
0.0523096220649,0.020343570279,1.02556592473,0.0478013948274,0.454,0.45,2,2,1,991,4
1.58912234982,0.0104143937484,-0.00579891002317,0.0564199250951,0.364,0.45,1,0,-1,992,4
0.0613047240011,1.50991247946,0.0349713655019,0.0750350033606,0.538,0.45,2,1,-1,993,4
0.0363990300597,-0.0071094174777,0.0113078818385,0.0508768525336,0.7,0.45,0,-1,0,995,4
0.0189302562408,-0.00770716015189,0.0102572035144,1.15609337863,0.626,0.45,3,3,1,995,4
0.0483097574855,-0.0077919384897,1.06341407922,0.0530024460767,0.467,0.45,2,2,1,996,4
0.0400219243836,-0.00588465999193,-0.0146083996149,1.04839911653,0.532,0.45,3,3,1,997,4
1.65877926604,-0.00759018432987,-0.00242472758973,0.0503733645414,0.544,0.45,0,0,1,998,4
0.117980720634,1.30647376855,0.0306909644597,0.166407855112,0.532,0.45,1,1,1,999,4
0.0469902733761,0.000233690550532,0.039237799708,0.0585205938679,0.7,0.45,3,-1,0,1001,4
0.0403248036265,0.000161796139036,0.0245747943955,1.1580236864,0.125,0.45,0,3,-1,1001,4
0.0411731603753,8.56000421301e-06,1.10434431715,0.0819143367382,0.387,0.45,2,2,2,1002,4
0.0506010188887,1.45683693881,-0.0155722728091,0.0682197301194,0.527,0.45,1,1,1,1003,4
1.01862365361,0.00557050053347,0.0101046717831,0.0607117733837,0.394,0.45,0,0,2,1004,4
0.0203018097473,1.67111505249,0.0151466606811,0.0750191928791,0.49,0.45,1,1,1,1005,4
0.0339102076191,0.00661064547965,1.4550222327,0.0579970020003,0.367,0.45,2,2,2,1006,4
3.39364953839,-0.0028797270002,0.023510663904,0.0915488296326,0.594,0.45,0,0,1,1007,4
0.0663666859812,0.0102567289608,0.0148000087325,1.29634855092,0.557,0.45,3,3,1,1008,4
0.0532112084661,0.0146789151598,1.02229553048,0.0626491404741,0.427,0.45,2,2,2,1009,4
0.0540303517726,0.0155440419052,-0.00295207721931,1.40405985382,0.548,0.45,3,3,1,1010,4
0.00914894996391,1.0531276295,0.0100653230482,-0.0327059230362,0.622,0.45,1,1,1,1011,4
0.048445470206,0.000651407154279,0.0148004985984,1.1387830699,0.503,0.45,3,3,1,1012,4
0.0425724139273,4.33759030529e-05,1.26235728288,0.0700273780832,0.46,0.45,2,2,1,1013,4
0.0463595859459,1.37533892519,-0.00421808165258,0.0718168634301,0.388,0.45,1,1,2,1014,4
1.25641098049,-0.00674043048558,0.00708347943022,0.0377529212652,0.46,0.45,0,0,1,1015,4
0.0797546545772,-0.000783868080405,1.11579744562,0.0763469115051,0.44,0.45,2,2,2,1016,4
0.0682328545088,1.14249469092,0.0144699711085,0.0970013230083,0.447,0.45,0,1,-1,1017,4
0.0664080971724,1.28630681862,0.0239946817726,0.0826026497621,0.7,0.45,1,-1,0,1019,4
0.0664080971724,1.28630681862,0.0239946817726,0.0826026497621,0.00900000000041,0.45,3,1,-1,1019,4
0.0557838973364,2.02704422359,0.00813861019049,0.0533798889073,0.555,0.45,1,1,1,1020,4
0.0492066946553,0.0130591915389,1.40464735225,0.0237444358039,0.447,0.45,2,2,2,1021,4
0.0589922566191,0.0154112376136,-0.00316936489784,1.43974112706,0.367,0.45,3,3,2,1022,4
1.47931386429,-0.00921430597608,-0.00757910821414,0.0111054672554,0.51,0.45,0,0,1,1023,4
0.0324421306806,0.00553454336189,0.00764173087737,1.16506859885,0.6,0.45,3,3,1,1024,4
0.0494342577213,0.00855806190887,1.62831638955,0.0794035156004,0.441,0.45,2,2,2,1025,4
0.0601612643504,1.325665546,0.00791612858943,0.0842741370506,0.389,0.45,1,1,2,1026,4
1.02610983979,0.0083147176913,0.00389822930215,0.0857269918293,0.372,0.45,0,0,2,1027,4
0.022529672984,0.00785725946324,1.42526025411,0.0705296999794,0.391,0.45,2,2,2,1028,4
1.21292627542,0.00781512623306,0.00533468184291,0.0486725621352,0.631,0.45,0,0,1,1029,4
0.0599182345802,1.1554899339,0.0103892519916,0.0679122822349,0.583,0.45,1,1,1,1030,4
0.0811931276178,0.00904655860438,1.30119335576,0.0691727520861,0.393,0.45,2,2,2,1031,4
0.0646268873669,0.00784456665378,0.0289268417648,0.0924359290688,0.7,0.45,3,-1,0,1033,4
0.0630692869368,0.00783051498842,0.0142789214873,1.93704844673,0.212,0.45,0,3,-1,1033,4
0.0630293318138,0.0078136142755,0.00116543485471,1.92214605595,0.435,0.45,3,3,2,1034,4
1.33035719575,0.00254061571585,-0.00484155211838,0.0070810655437,0.52,0.45,1,0,-1,1035,4
0.0579095199683,0.00349368554138,0.0196951080852,1.09959200679,0.608,0.45,3,3,1,1036,4
1.05462518007,0.0130984964338,0.00877702112361,0.0605605864223,0.559,0.45,0,0,1,1037,4
0.0637624580929,0.000892443895046,0.0643417473384,0.0509430335604,0.7,0.45,1,-1,0,1039,4
0.0761933098523,0.000187110940929,1.8396197494,0.0672656614571,0.522,0.45,2,2,1,1039,4
2.81660242774,0.0686624058721,0.00781428778401,0.059108639651,0.658,0.45,0,0,1,1040,4
0.105984322703,0.00550554331333,1.06549682018,-0.14703501782,0.442,0.45,2,2,2,1041,4
0.0562303369699,1.16676475374,0.00125047614017,0.0220781786184,0.399,0.45,1,1,2,1042,4
1.10017658086,0.00824774002479,0.00492391961069,0.0366460995777,0.408,0.45,0,0,2,1043,4
0.0241912380891,0.00859335592235,1.41058662205,0.0547577338529,0.422,0.45,3,2,-1,1044,4
0.0281133235059,1.24208448992,0.00910181956214,0.0271048042253,0.63,0.45,1,1,1,1045,4
0.046752853486,0.00816361856537,0.062410692443,2.16343679115,0.56,0.45,3,3,1,1046,4
0.0489056449291,0.00785078483529,1.3852975448,0.0740139803151,0.459,0.45,2,2,1,1047,4
0.0773623710957,0.00781629991232,0.025545312451,1.51609851526,0.521,0.45,3,3,1,1048,4
1.46769146395,-0.000705264183227,0.0125955011909,0.0572787367876,0.526,0.45,0,0,1,1049,4
0.0484313499138,1.27957343135,0.0149893189526,0.0746181506834,0.587,0.45,1,1,1,1050,4
0.0483316657179,0.00866220329844,1.00756584247,0.0744878481499,0.4,0.45,2,2,2,1051,4
1.28873148087,0.00784048949019,0.00219276809215,0.0695844403345,0.519,0.45,0,0,1,1052,4
0.03835049353,0.00781706281108,1.37986064903,0.0678534830683,0.418,0.45,2,2,2,1053,4
0.0310931254034,1.17028012387,0.0157888469341,0.0699402532897,0.341,0.45,1,1,2,1054,4
0.0357401566894,0.00805683911562,1.17701966752,0.0824612150422,0.405,0.45,3,2,-1,1055,4
0.0368290394907,0.0335757627359,0.458807642127,0.0611763235943,0.7,0.45,2,-1,0,1057,4
0.0398195287526,0.03102762062,1.31167471361,0.0619841017254,0.0380000000004,0.45,3,2,-1,1057,4
0.0310461725387,1.91671131844,0.00781421196137,0.0623724715288,0.588,0.45,1,1,1,1058,4
1.44814710554,0.0236131426171,0.0078127963748,0.0462699593752,0.462,0.45,0,0,1,1059,4
0.0316275857603,0.0135056080351,-0.0287028549531,1.25672964857,0.496,0.45,3,3,1,1060,4
0.0404800593761,0.467598382081,0.0129921746262,0.00781890955377,0.7,0.45,1,-1,0,1062,4
1.19758156097,0.0363519576674,0.0152521580051,0.00883844243375,0.667,0.45,0,0,1,1062,4
0.0400461895791,0.0140997532508,1.04263476013,-0.0035662237084,0.508,0.45,2,2,1,1063,4
0.0968419303309,1.25958066405,0.00767415550951,0.098947335342,0.505,0.45,1,1,1,1064,4
0.0573960982427,0.0157221732532,1.12916922172,0.0366653628058,0.504,0.45,2,2,1,1065,4
1.57834695551,0.00995395409262,-0.00756052894428,0.0355011252472,0.454,0.45,0,0,1,1066,4
0.0413536391634,0.015991342843,1.18671987055,0.0382538640967,0.441,0.45,3,2,-1,1067,4
2.07003144541,-0.0097177944373,-0.00725581032407,0.0293834525985,0.576,0.45,0,0,1,1068,4
0.0867529624143,0.0193969746844,0.0682879685964,0.0351642917561,0.7,0.45,1,-1,0,1070,4
0.0542116336391,1.29221176912,-0.000883835603528,-0.105287883208,0.122,0.45,3,1,-1,1070,4
0.050284103387,0.000308303054156,1.10110182926,0.0439032226901,0.392,0.45,2,2,2,1071,4
0.0541891073615,0.00273005979585,0.421191086855,1.03658746324,0.515,0.45,3,3,1,1072,4
1.86057402525,0.000198536676937,-0.0229845126401,0.0847640671491,0.582,0.45,0,0,1,1073,4
0.0426419004832,0.00169972577798,1.05737486863,0.0592974840234,0.372,0.45,2,2,2,1074,4
0.0578530531888,1.69078410858,-0.00861177144902,-0.00691141350001,0.38,0.45,1,1,2,1075,4
1.32420058444,0.0268901331086,0.00616372090338,0.0422002836977,0.372,0.45,0,0,2,1076,4
0.017283879562,0.0280855261612,0.0426499451046,0.0466774883609,0.7,0.45,1,-1,0,1078,4
0.0155060840162,1.44677680186,0.0321680795144,0.0557675105703,0.217,0.45,2,1,-1,1078,4
0.0283392391782,0.0313549029192,0.0655508033698,0.0482926943355,0.7,0.45,3,-1,0,1080,4
0.0318391558828,0.0312717021108,1.0236557744,0.047168572185,0.523,0.45,2,2,1,1080,4
0.0335821898281,0.0492998041864,7.79837039122e-05,0.0468956391179,0.7,0.45,0,-1,0,1082,4
0.0626827125201,0.0155490171364,-0.0117331273091,2.68258294496,0.605,0.45,3,3,1,1082,4
0.0742052309925,1.10048673815,0.0243591271701,0.0468901536343,0.593,0.45,1,1,1,1083,4
0.0457256518665,0.000346403057329,0.00979250363687,1.78247307195,0.525,0.45,3,3,1,1084,4
0.0919856862466,0.265057285965,1.03313928286,0.205030171093,0.687,0.45,1,2,-1,1085,5
0.0393385134025,-0.00998677333712,1.69860253027,0.405562041431,0.422,0.45,2,2,2,1086,5
2.1191992486,0.0063497315727,0.0234978305845,0.140815154971,0.496,0.45,0,0,1,1087,5
0.109749487768,0.00772345006216,0.0487324510652,0.277950846578,0.7,0.45,3,-1,0,1089,5
0.112324561196,0.00776970316302,0.0235299058362,1.03451345779,0.267,0.45,0,3,-1,1089,5
0.10500264671,0.00780938338331,1.3788957161,0.165206405966,0.436,0.45,2,2,2,1090,5
0.0925354154446,0.00781225939329,0.00783808536135,1.18792681434,0.586,0.45,3,3,1,1091,5
0.0974932635186,0.00781246343433,1.55827205733,0.125508548258,0.511,0.45,2,2,1,1092,5
0.0827576980526,1.24755168064,0.0314745707966,0.105771772318,0.486,0.45,1,1,1,1093,5
2.02297995771,0.0329215013591,0.00268982580383,0.0989114036893,0.383,0.45,0,0,2,1094,5
0.0730462743471,1.25405059719,0.000214196054376,0.0951043518186,0.516,0.45,1,1,1,1095,5
0.0658720770155,0.0155291513269,1.08438590549,0.0749900708382,0.384,0.45,3,2,-1,1096,5
0.065628736222,1.66245392318,0.0163214755415,0.063059702232,0.476,0.45,1,1,1,1097,5
2.533959604,0.0275810882762,0.0071546029301,0.0556117715186,0.563,0.45,0,0,1,1098,5
0.0962118318888,0.0240633290397,1.33283292355,0.0218922460065,0.429,0.45,2,2,2,1099,5
0.0871247732149,0.0235163690012,0.010722294488,1.01245535894,0.414,0.45,3,3,2,1100,5
1.33218052899,0.0162409979425,0.013938664416,-0.0318992865295,0.483,0.45,0,0,1,1101,5
0.0546002936114,0.0220662730667,0.00833532517477,1.02563709442,0.579,0.45,3,3,1,1102,5
0.0659950529416,0.0231506128042,1.13189374867,0.0681635012551,0.397,0.45,2,2,2,1103,5
1.50433375667,0.0137169534021,0.0143207609613,0.0650234394278,0.492,0.45,0,0,1,1104,5
0.0832084504622,1.12969087945,0.0104790662763,0.178040602637,0.527,0.45,1,1,1,1105,5
0.0601301077419,-0.0146179820115,1.09751142299,0.0573988753537,0.367,0.45,2,2,2,1106,5
0.0502065188189,1.12991074171,0.0161824408875,0.0475163152953,0.588,0.45,1,1,1,1107,5
0.0674446317048,-0.00745642415581,-0.0257997239337,1.02147415954,0.513,0.45,3,3,1,1108,5
0.0555817930851,-0.00778581705114,1.09317361388,-0.0199527467193,0.516,0.45,1,2,-1,1109,5
0.0541600649032,-0.00780777970131,1.24757377862,0.0101412881994,0.388,0.45,2,2,2,1110,5
0.0542162940253,-0.00781215534888,-0.0075596569678,1.23674176506,0.556,0.45,3,3,1,1111,5
1.41137767497,-0.00781245227242,-0.000527790502061,0.0346357421562,0.512,0.45,0,0,1,1112,5
0.0699743661458,-0.00781249666428,0.0021210855727,1.0797048979,0.698,0.45,3,3,1,1113,5
0.0756546652121,-0.00781249929387,1.08664238762,0.0709647823302,0.513,0.45,2,2,1,1114,5
1.42487356375,0.0410677934925,0.0158653794576,0.0610119429277,0.698,0.45,0,0,1,1115,5
0.0751916600644,-8.78105405437e-05,1.14110523408,0.0609081853878,0.516,0.45,2,2,1,1116,5
0.0406373574166,1.10772701949,0.00573120468208,0.0594581027186,0.521,0.45,1,1,1,1117,5
1.07514209183,-0.00653084175131,0.00745542070698,0.0517375209904,0.369,0.45,0,0,2,1118,5
0.0719699803163,1.34146576206,-0.000585065562293,0.0344900031487,0.467,0.45,1,1,1,1119,5
0.0759809428857,0.00134470011875,1.0600275292,0.0487513385546,0.363,0.45,3,2,-1,1120,5
0.0109695481664,1.32557737686,-0.0359657193001,-0.080044882151,0.7,0.45,1,-1,0,1122,5
0.0109695481664,1.32557737686,-0.0359657193001,-0.080044882151,0.0160000000005,0.45,2,1,-1,1122,5
1.88334864352,-0.00772045089849,-0.00062871970361,0.0452927788585,0.611,0.45,0,0,1,1123,5
0.0540398972049,-0.00921117374953,0.00674635333647,1.22983536647,0.577,0.45,3,3,1,1124,5
1.63046538729,-0.0020950287088,0.000832399150129,0.0422525458118,0.551,0.45,0,0,1,1125,5
0.0651775299412,-0.0142662218909,1.01858766944,0.0313685120945,0.446,0.45,2,2,2,1126,5
0.0541280158318,-0.013636061123,-0.0154763819686,1.10388665476,0.614,0.45,3,3,1,1127,5
0.0646732666633,-0.0152990783372,1.27965379478,0.0537359684064,0.511,0.45,2,2,1,1128,5
0.0390059459943,1.16183312089,0.0096083779491,0.0445382117184,0.487,0.45,1,1,1,1129,5
1.44999226697,0.0244764119356,0.0121610927823,0.0571507379628,0.327,0.45,0,0,2,1130,5
0.0743753575238,1.11204693878,0.0153779865259,0.0369254942669,0.503,0.45,1,1,1,1131,5
0.0578801601633,0.0354679734863,0.0156037079743,1.35035965523,0.616,0.45,3,3,1,1132,5
1.37538343405,0.0201713509794,0.0156220087141,0.0516709262611,0.567,0.45,1,0,-1,1133,5
0.0797329920088,0.0122079689365,0.00427797356258,1.37781193358,0.576,0.45,3,3,1,1134,5
0.0678422382241,0.0188880755671,1.16508867503,0.0473937061067,0.472,0.45,2,2,1,1135,5
1.23761740859,0.0103492246229,0.0309673192521,0.0813103075844,0.509,0.45,0,0,1,1136,5
0.0314096675307,1.40357544958,0.0199335957737,0.0462528313863,0.431,0.45,2,1,-1,1137,5
0.0359586264268,0.00788912997034,0.0741368234926,0.0537408326131,0.7,0.45,3,-1,0,1139,5
1.65882706977,-0.00466411601917,-0.0104238159907,0.0362049794906,0.589,0.45,0,0,1,1139,5
0.012482178975,0.00680070593883,-0.0166904743833,1.12170667713,0.507,0.45,3,3,1,1140,5
0.0354848239505,1.48955329948,0.00534992798385,0.0345819681749,0.539,0.45,1,1,1,1141,5
1.59138739587,0.0314934272997,0.00751691758184,0.0360366543347,0.54,0.45,0,0,1,1142,5
0.0290916059029,1.14444439037,0.000956959630213,0.0413640071768,0.515,0.45,1,1,1,1143,5
0.0512151551829,0.00122685665599,1.14040480742,0.0218771811656,0.382,0.45,2,2,2,1144,5
0.108713924271,1.03973598026,0.0157019923822,0.0210596603474,0.605,0.45,1,1,1,1145,5
0.00953553037764,-0.00105281002164,1.37767051235,0.00523979180345,0.501,0.45,2,2,1,1146,5
0.0450345885398,-0.00725959218379,0.017764906121,1.15513138215,0.505,0.45,3,3,1,1147,5
2.16051739309,0.0280134140285,0.00185292477335,0.102478737107,0.478,0.45,0,0,1,1148,5
0.0122801122867,0.00119740974664,1.02288457658,0.0684032859259,0.377,0.45,2,2,2,1149,5
1.27016444809,0.0070626879489,0.0158035925322,0.0753039641348,0.406,0.45,0,0,2,1150,5
0.0285156863701,0.00725276360712,1.31596964172,0.0798038834642,0.417,0.45,3,2,-1,1151,5
0.00732646325275,-0.0010052227323,1.13988158702,0.0725246405417,0.45,0.45,2,2,1,1152,5
1.37522224903,-0.00570847856896,-0.00736024428766,0.0548266881282,0.458,0.45,1,0,-1,1153,5
5.18919882042,0.00320658661537,0.0186360500329,0.0382441241017,0.653,0.45,0,0,1,1154,5
0.0490236688645,1.47631296467,0.00462057893443,-0.0746153530375,0.551,0.45,1,1,1,1155,5
