force_0,force_1,force_2,force_3,rt,rt_threshold,target_finger,selected_finger,score,trial,run
0.132503466435,0.116577037094,1.05179805515,0.208767140236,0.539,0.45,2,2,1,0,0
1.07443815467,0.0442448595975,0.0337433150263,0.396615607925,0.509,0.45,0,0,1,1,0
0.322676912557,1.02262548665,0.204530613847,0.410316697488,0.598,0.45,1,1,1,2,0
0.359263775735,0.144344735418,0.133427223899,1.0034423468,0.617,0.45,3,3,1,3,0
1.08219763992,0.10483032925,0.141099327343,0.213830658495,0.507,0.45,0,0,1,4,0
0.100717703298,0.0537259538138,1.03691175572,0.171963048194,0.357,0.45,3,2,-1,5,0
0.252276916481,1.07822584023,0.0575561003452,0.198124785211,0.497,0.45,1,1,1,6,0
0.140506582355,0.0258855352242,1.00000773789,0.216439229821,0.497,0.45,2,2,1,7,0
0.14330949457,0.0235155518799,0.0234878501239,0.210231246031,0.7,0.45,3,-1,0,9,0
0.0988592412898,0.023450991477,1.09254235931,0.199709431673,0.569,0.45,2,2,1,9,0
0.354561940984,1.16744784082,0.0380350144224,0.289519137956,0.484,0.45,1,1,1,10,0
1.10538694359,0.307856574166,0.365469176892,0.398177488315,0.393,0.45,0,0,2,11,0
0.157200503046,0.0749490454416,1.07903911639,0.368141616998,0.386,0.45,2,2,2,12,0
0.5615231807,1.00821769322,0.196969995651,0.348626080145,0.455,0.45,1,1,1,13,0
0.631899040312,0.145877102986,0.410443889854,1.01283381308,0.689,0.45,3,3,1,14,0
1.00946888884,0.205769206233,0.301902284501,0.297717082174,0.497,0.45,0,0,1,15,0
0.474716486611,1.13564151125,0.33481418319,0.402538648546,0.385,0.45,1,1,2,16,0
1.15315928023,0.225395124151,0.263905645182,0.428919875452,0.464,0.45,0,0,1,17,0
0.392716388447,0.13821223546,1.03194451818,0.491998778161,0.363,0.45,3,2,-1,18,0
0.934543176394,1.02292618243,0.116346211716,0.303223297767,0.505,0.45,1,1,1,19,0
0.187857207988,7.89331433642e-05,1.07493041992,0.101392410879,0.447,0.45,2,2,2,20,0
0.408269096436,0.0305724078209,0.10799436428,1.0560649616,0.451,0.45,3,3,1,21,0
0.195848763673,0.0441723073961,1.14130662756,0.214233868189,0.452,0.45,2,2,1,22,0
1.04659795979,0.296937909828,0.0916802393373,0.445884946606,0.385,0.45,0,0,2,23,0
0.350657908381,0.0807274561615,1.07342755169,0.338521813458,0.379,0.45,2,2,2,24,0
0.483931115626,0.0419601474876,0.200120386879,1.06008535249,0.348,0.45,3,3,2,25,0
1.18980207027,0.120968547417,0.0738753806253,0.332317985678,0.419,0.45,0,0,2,26,0
1.12823679274,0.199242622601,0.17258070377,0.433493098106,0.386,0.45,1,0,-1,27,0
0.0443582808028,0.105597161267,0.217976663166,1.09127465736,0.415,0.45,3,3,2,28,0
0.200990164994,1.04245270079,0.0764604718286,0.380058349396,0.429,0.45,1,1,2,29,0
1.13426976172,0.317659812252,0.113056077473,0.513305269814,0.427,0.45,0,0,2,30,0
0.306687301492,0.123555096079,1.03968673655,0.451926689274,0.529,0.45,2,2,1,31,0
1.12049271406,0.0578464341433,0.0556412557006,0.294317249123,0.508,0.45,0,0,1,32,0
0.491947656485,0.230179951503,0.151954236395,1.10167846815,0.505,0.45,3,3,1,33,0
0.329637349934,0.167651838733,1.00642758174,0.264212659957,0.55,0.45,2,2,1,34,0
0.528326314666,1.03217610583,0.0489279555494,0.263500816113,0.533,0.45,1,1,1,35,0
0.334011710461,0.0454232381563,1.00637821741,0.32572260138,0.537,0.45,2,2,1,36,0
0.990468808804,1.02727329533,0.048244741752,0.399359647414,0.519,0.45,1,1,1,37,0
1.04792177874,0.425174674438,0.159494965954,0.516487702904,0.489,0.45,0,0,1,38,0
0.388816176296,0.194990964013,0.220550841558,1.02878151464,0.436,0.45,3,3,2,39,0
1.10840884979,0.392033398076,0.138688784231,0.418511634307,0.453,0.45,0,0,1,40,0
1.08156315854,0.25329550835,0.127867242617,0.460097325184,0.445,0.45,1,0,-1,41,0
0.0797234571763,0.061442341357,0.102738421454,1.02648190249,0.427,0.45,3,3,2,42,0
0.322407810803,0.0981528979598,1.00330060562,0.238137952786,0.481,0.45,2,2,1,43,0
1.11274929232,0.0597636713838,0.0206557447653,0.441835583149,0.452,0.45,0,0,1,44,0
0.349256834001,0.0760929539856,1.01752126655,0.456736183382,0.428,0.45,2,2,2,45,0
0.201423537963,0.0450869020529,0.267474471395,1.04794836686,0.413,0.45,3,3,2,46,0
0.55464810642,1.00191061387,0.0616628001564,0.303201333376,0.482,0.45,1,1,1,47,0
0.230959948428,0.0297559794602,1.00554212969,0.294039473539,0.471,0.45,2,2,1,48,0
1.13032819224,0.0495801080305,0.0324175436216,0.522471222339,0.422,0.45,0,0,2,49,0
0.233491262156,0.068885319098,0.258340032006,1.02749984065,0.408,0.45,3,3,2,50,0
0.470901798295,1.0352120315,0.0836394990455,0.395893566129,0.458,0.45,1,1,1,51,0
0.213296627289,0.0884573584411,0.0260687519329,1.03475165604,0.427,0.45,3,3,2,52,0
1.01660043347,0.172067890632,0.0407442682748,0.438014197456,0.408,0.45,0,0,2,53,0
0.326151798585,1.00763566359,0.0937962052423,0.497824147674,0.474,0.45,1,1,1,54,0
0.238059438992,1.03736861401,0.088550285426,0.531128396686,0.555,0.45,2,1,-1,55,0
0.133158054912,0.0740355425073,0.0214469694494,1.02076181123,0.533,0.45,3,3,1,56,0
0.121879692153,0.0709650871579,1.02900058154,0.227476851974,0.588,0.45,2,2,1,57,0
0.182243492869,1.01536804322,0.0246471919523,0.434281282918,0.599,0.45,1,1,1,58,0
1.08539369639,0.117310811411,0.0936444675404,0.47829505965,0.51,0.45,0,0,1,59,0
0.175465890869,0.0805426893789,1.07951414396,0.487271699262,0.479,0.45,2,2,1,60,0
0.127674410331,1.04470736994,0.0836002457002,0.51544503196,0.507,0.45,1,1,1,61,0
0.341663844746,0.352363243126,0.116974950617,1.06058516523,0.474,0.45,3,3,1,62,0
1.07777142901,0.266010274322,0.0886172452577,0.425211506873,0.456,0.45,0,0,1,63,0
0.460693193189,0.179441451048,0.106109242201,1.00369756958,0.476,0.45,3,3,1,64,0
0.607363909133,1.08687794176,0.063865776654,0.487556650563,0.493,0.45,1,1,1,65,0
1.03790843108,0.194491873035,0.089090065462,0.510464442414,0.517,0.45,0,0,1,66,0
0.690110280399,0.0964735896593,1.00019953234,0.576055884965,0.612,0.45,2,2,1,67,0
0.597931543031,0.075324864016,0.114165447991,1.07156004181,0.586,0.45,3,3,1,68,0
0.495060279694,0.183300338316,1.06503800308,0.419626876307,0.695,0.45,2,2,1,69,0
1.07817819435,0.0995615779139,0.0537795066198,0.423353882441,0.6,0.45,0,0,1,70,0
0.73287777692,1.05893150258,0.0799335840923,0.465296311227,0.522,0.45,1,1,1,71,0
0.427034176671,0.168781016388,1.05499200346,0.403329743814,0.473,0.45,2,2,1,72,0
0.480599951926,0.119105065665,0.104039842414,1.01698749075,0.42,0.45,3,3,2,73,0
0.67846422113,1.09154474984,0.0643440042708,0.409970180301,0.505,0.45,1,1,1,74,0
1.08127667597,0.198710077105,0.0280233034347,0.480624968516,0.448,0.45,0,0,2,75,0
0.460909226067,0.114406397966,0.066831265381,1.04685052543,0.383,0.45,3,3,2,76,0
1.13566766861,0.169026021854,0.0661859619956,0.404998937981,0.361,0.45,0,0,2,77,0
0.584466813542,1.17103411154,0.055549048268,0.439409015792,0.407,0.45,1,1,2,78,0
0.329792313244,0.0937387728907,0.0674865772245,1.00697906804,0.376,0.45,3,3,2,79,0
0.246668013575,0.10245866083,1.02665718513,0.343788615451,0.494,0.45,2,2,1,80,0
1.08181182196,0.0669276948665,0.0255318827951,0.391438185327,0.448,0.45,0,0,2,81,0
0.441062010031,0.0862936961051,1.02912930679,0.319029799442,0.485,0.45,2,2,1,82,0
0.423291329888,1.00458801355,0.0551336118167,0.255869883597,0.481,0.45,1,1,1,83,0
0.502082007883,0.0770334296057,1.00070422973,0.333806880877,0.439,0.45,2,2,2,84,0
0.468362270826,0.0460344312318,0.10386463105,1.08914677519,0.377,0.45,3,3,2,85,0
1.12122085891,0.0871154336511,0.115663330469,0.388571354079,0.338,0.45,0,0,2,86,0
1.0583012303,0.0909250264342,0.197106502512,0.373784962595,0.376,0.45,1,0,-1,87,0
1.00318185841,0.27429236093,0.0470727186423,0.43164563328,0.512,0.45,0,0,1,88,0
0.457434190686,0.127179770168,0.0535143666161,1.00457182334,0.499,0.45,3,3,1,89,0
0.508304585203,1.12131103164,0.0265160320453,0.303010958439,0.421,0.45,1,1,2,90,0
0.254584482328,0.0360080370756,1.03152968753,0.379092275188,0.399,0.45,2,2,2,91,0
1.02304527025,0.0435192080317,0.0700913266024,0.442576920604,0.368,0.45,0,0,2,92,0
0.445492007233,0.0544598276772,1.09110010015,0.413821500864,0.379,0.45,2,2,2,93,0
0.6756272785,1.09454110698,0.0430947131886,0.265601094432,0.407,0.45,1,1,2,94,0
0.413936633626,0.084252689477,0.00898423785705,1.09955633626,0.427,0.45,3,3,2,95,0
0.0984825285653,0.0966827684143,1.00993258715,0.28528413584,0.446,0.45,2,2,2,96,0
0.399477601745,1.02037848283,0.03201504531,0.373844363393,0.37,0.45,1,1,2,97,0
1.00292373025,0.239205676365,0.0312853782157,0.47439537293,0.325,0.45,0,0,2,98,0
0.0819755655657,0.0649802949734,0.624017554652,1.06614143867,0.364,0.45,3,3,2,99,0
1.11729883957,0.386612346409,0.0466769369908,0.451857976378,0.41,0.45,0,0,2,100,0
0.459708723553,1.05983111717,0.0785134178591,0.524952531753,0.42,0.45,1,1,2,101,0
0.249438258798,0.100365217512,0.153832778626,1.01204983935,0.344,0.45,3,3,2,102,0
0.226024535092,0.0942965572671,1.16427837898,0.381774151784,0.41,0.45,2,2,2,103,0
0.453832505235,0.040482670798,0.582541862533,1.12818018154,0.512,0.45,3,3,1,104,0
0.129017314779,1.04582893542,0.0380448001741,0.285358388631,0.488,0.45,1,1,1,105,0
0.160320336697,0.0487820815497,1.01995561706,0.376422947768,0.449,0.45,2,2,2,106,0
1.0357935102,0.0469497551346,0.0424737504086,0.507302864926,0.408,0.45,0,0,2,107,0
0.250595458768,0.0621912028148,1.03425899553,0.451472590713,0.443,0.45,2,2,2,108,0
0.40070187542,0.03191817887,0.039910240453,1.03140819378,0.359,0.45,3,3,2,109,0
0.654079554232,1.04547075092,0.0434210111685,0.380308200109,0.402,0.45,1,1,2,110,0
1.09359951421,0.19940724893,0.0395764242694,0.431973681424,0.378,0.45,0,0,2,111,0
0.947247085684,1.00235338956,0.0350910904243,0.496584104253,0.443,0.45,1,1,2,112,0
0.0752140881159,0.0601663349938,0.0222734457989,1.01441408237,0.421,0.45,3,3,2,113,0
1.15364987895,0.122432509918,0.0163693710087,0.389335185596,0.406,0.45,0,0,2,114,0
0.111552475022,0.0648399609682,0.126371522322,1.01001289419,0.405,0.45,3,3,2,115,0
0.173070176574,0.0332075175075,1.10527050723,0.359327723294,0.474,0.45,2,2,1,116,0
0.227607392506,1.12258166626,0.0226069180218,0.277072245624,0.462,0.45,1,1,1,117,0
0.186792645816,0.0454765527004,1.0725303191,0.178612877785,0.465,0.45,2,2,1,118,0
1.08045808948,0.0314862201148,0.0392490708963,0.440977568551,0.408,0.45,0,0,2,119,0
0.078207350745,0.0422083564608,1.02361691973,0.197805827884,0.455,0.45,2,2,1,120,0
1.13321628548,0.0252833505762,0.0400333657531,0.251900421774,0.446,0.45,0,0,2,121,0
0.0938060261816,0.0295681681625,0.112573487458,1.10697666099,0.411,0.45,3,3,2,122,0
1.07392052877,0.121203297526,0.0331169131636,0.349444255991,0.402,0.45,1,0,-1,123,0
1.39718351474,0.0465426052958,0.0243939435161,0.40282451047,0.426,0.45,0,0,2,124,0
0.0703219106679,1.03076185755,0.0235398501184,0.244390533114,0.446,0.45,1,1,2,125,0
0.0703129955338,0.0234911670654,0.0234513789941,1.01229245269,0.39,0.45,3,3,2,126,0
1.02138301679,0.0938421155249,0.0234389105679,0.275948981035,0.427,0.45,0,0,2,127,0
0.0895462594969,0.0471779449186,1.08940210488,0.355623721379,0.464,0.45,2,2,1,128,0
0.121957456638,1.04849079793,0.0157143332045,0.368234024314,0.561,0.45,1,1,1,129,0
0.0737645235972,0.0249933280175,1.0791515586,0.175058155006,0.445,0.45,2,2,2,130,0
0.0593622397167,0.0157552504058,0.0235716633578,1.08905301531,0.359,0.45,3,3,2,131,0
0.0874369511256,0.111364643395,1.03174682765,0.161406175632,0.457,0.45,2,2,1,132,0
0.0579373538664,0.0445395886854,0.394082756527,1.06922995392,0.475,0.45,3,3,1,133,0
0.0680675535539,1.11719325235,0.0220894883378,0.145171665595,0.46,0.45,1,1,1,134,0
1.10970541522,0.056128595975,0.0167424563279,0.232945497351,0.311,0.45,0,0,2,135,0
0.0707663719242,0.0395676559645,0.0452444909934,0.54138005643,0.7,0.45,3,-1,0,137,0
0.072534846906,0.0394464665085,0.036530238939,1.08898437951,0.0920000000001,0.45,0,3,-1,137,0
0.0600607541102,1.12300467239,0.52846838643,0.197613609886,0.62,0.45,1,1,1,138,0
0.110204620084,0.0322219454694,1.07131909061,0.162925187198,0.509,0.45,2,2,1,139,0
0.0696328665499,1.01431846596,0.0296893851952,0.151073889985,0.403,0.45,1,1,2,140,0
0.0838053142668,0.035296729904,0.389387944168,1.02379250213,0.526,0.45,3,3,1,141,0
0.132182165892,0.0425286991876,1.07263456544,0.132894367704,0.532,0.45,2,2,1,142,0
1.18141489042,0.0365666755235,0.0439528112434,0.145117280336,0.381,0.45,0,0,2,143,0
0.0756968465636,0.0674223413613,1.0128755809,0.151604252014,0.435,0.45,2,2,2,144,0
1.05880607166,0.0338853055093,0.0655338492671,0.338587630365,0.417,0.45,0,0,2,145,0
0.131625766977,0.0853192531348,0.0636608244148,1.00717961312,0.414,0.45,3,3,2,146,0
0.607374405987,1.12186356264,0.0450316314275,0.334313204805,0.549,0.45,1,1,1,147,0
1.12486419293,0.0817948413646,0.0191727903026,0.345493906564,0.426,0.45,0,0,2,148,0
0.391564182556,1.06917384853,0.0294158072293,0.390009335218,0.459,0.45,1,1,1,149,0
0.0943647249897,0.0454066072953,0.12138266213,1.00426028745,0.505,0.45,3,3,1,150,0
1.31798409478,0.032099143962,0.0291698733531,0.333526446592,0.509,0.45,0,0,1,151,0
0.0703159114915,0.0561167346655,1.03794386683,0.254819307691,0.399,0.45,2,2,2,152,0
0.070312548959,1.24398699353,0.0237127749515,0.13635305399,0.424,0.45,1,1,2,153,0
0.0857744330173,0.0583954091154,1.01938626247,0.356205320577,0.497,0.45,2,2,1,154,0
0.118647616226,0.0318584024762,0.0245377881495,0.165501673055,0.7,0.45,3,-1,0,156,0
0.118506167948,0.0316182774336,0.024041988468,1.08423929131,0.161,0.45,2,3,-1,156,0
1.17318370327,0.0312704600735,0.0325289688049,0.158839966151,0.392,0.45,0,0,2,157,0
0.0588958711116,0.028747890029,1.03032030883,0.144747578858,0.365,0.45,3,2,-1,158,0
0.139007043474,1.02349174197,0.235056499294,0.0910957082693,0.573,0.45,1,1,1,159,0
1.32519202163,0.00782860973187,0.0146925583101,0.0755236566955,0.42,0.45,0,0,2,160,0
0.081210640437,1.1652376877,0.162924570664,0.0798740650717,0.493,0.45,1,1,1,161,0
0.0805779771244,0.0468879263788,0.0273228980056,1.00850588209,0.387,0.45,3,3,2,162,0
0.0833402221623,0.48045922134,1.10684389215,0.070318240912,0.517,0.45,2,2,1,163,0
0.0716420417018,1.16377876186,0.0312798954821,0.0678810646286,0.497,0.45,1,1,1,164,0
0.0789772687981,0.0312552555743,1.00421018221,0.116690384957,0.465,0.45,2,2,1,165,0
0.0696995420542,0.031250406532,0.0234810704241,1.01795279137,0.395,0.45,3,3,2,166,0
1.19275989833,0.0312500556196,0.0241775790367,0.0732832676481,0.332,0.45,0,0,2,167,0
0.0156251164665,0.0312500061052,1.13699743522,0.0901581919569,0.344,0.45,2,2,2,168,0
1.8842623197,0.0273191761035,0.0312638895147,0.0601343114135,0.431,0.45,0,0,2,169,0
0.0628322642005,0.0307998868251,0.0754885627164,1.09045594542,0.418,0.45,3,3,2,170,0
0.0657355571645,1.17068402279,0.0118459604524,0.0690684189926,0.491,0.45,1,1,1,171,0
0.0688925972689,0.0416686353865,0.00829410550748,1.0965968898,0.468,0.45,3,3,1,172,0
1.00114974818,0.102486305066,0.00788459529743,0.0950569681804,0.38,0.45,0,0,2,173,0
0.0658764601957,1.15123137626,0.0288048452639,0.295714611837,0.449,0.45,1,1,2,174,0
1.0967902693,0.0477699227211,0.0167155038619,0.303783060944,0.513,0.45,0,0,1,175,0
0.0744508241337,0.217341385442,1.07421308212,0.136359289727,0.465,0.45,2,2,1,176,0
0.0554661756962,1.01822781114,0.0316076349152,0.0691449858838,0.546,0.45,1,1,1,177,0
0.0566331308424,0.0313153530296,1.02279479799,0.0701427726307,0.463,0.45,2,2,1,178,0
0.0508801675608,0.0312539243194,0.0314940752499,1.06000863613,0.411,0.45,3,3,2,179,0
0.063535033751,0.371420080658,1.17201188927,0.104532869171,0.597,0.45,2,2,1,180,0
1.01365412747,0.0375373864699,0.0278666126268,0.0922936975251,0.5,0.45,0,0,1,181,0
0.0390710155278,1.07671904342,0.0368783422035,0.0966083460009,0.338,0.45,1,1,2,182,0
0.04322778374,0.0468807700795,0.0238788287268,0.0954800086463,0.7,0.45,3,-1,0,184,0
0.0444507609869,1.22349562122,0.0190646357465,0.0851280853746,0.46,0.45,1,1,1,184,0
1.13537214371,0.0444254657467,0.0276911223079,0.0826518198321,0.392,0.45,0,0,2,185,0
0.117160386624,0.0160219276162,0.00850065700065,0.608234782756,0.7,0.45,3,-1,0,187,0
1.16657952165,0.0157016879145,0.0079456878309,0.125371825935,0.531,0.45,0,0,1,187,0
0.0879841677532,0.0156338773927,1.12321308688,0.129762249113,0.526,0.45,2,2,1,188,0
0.0949535585681,0.015626427387,0.0196229704888,1.10764338255,0.415,0.45,3,3,2,189,0
0.0938804006109,1.02269940738,-0.007369054248,0.115323297565,0.423,0.45,2,1,-1,190,0
0.0867118283685,1.07825429854,0.0357776132477,0.121540876146,0.422,0.45,1,1,2,191,0
0.0543701671767,0.0390626784449,1.05118786184,0.0770896665219,0.459,0.45,2,2,1,192,0
0.048704036423,0.0390625104199,0.0234490993732,1.01684890546,0.384,0.45,3,3,2,193,0
0.0510892196302,1.12136590829,0.0138714303516,0.0984857162017,0.497,0.45,1,1,1,194,0
1.08619084465,0.031251013622,0.0180022852058,0.0850155662402,0.38,0.45,0,0,2,195,0
0.0099541200969,1.11083712089,0.0229036308742,0.0850003349347,0.417,0.45,1,1,2,196,0
0.0349363994999,0.0468760304323,0.0233766966918,1.00232770264,0.417,0.45,3,3,2,197,0
1.06843787905,0.0436559510417,0.0262277398803,0.109873429656,0.4,0.45,0,0,2,198,0
0.0859378577597,0.0317290425975,0.0235598915443,0.596887886776,0.7,0.45,3,-1,0,200,0
0.0903460731671,0.0313396648585,1.06353322301,0.0536090294951,0.54,0.45,2,2,1,200,0
1.09255059129,0.0312622741066,0.0233398022963,0.0393700144809,0.481,0.45,0,0,1,201,0
0.0463939568501,0.0288387803931,1.03791273981,0.0263037719865,0.376,0.45,2,2,2,202,0
0.00881047990033,1.17583579501,0.0207308035194,0.0512470594931,0.477,0.45,1,1,1,203,0
0.0573912808358,0.0451834100026,1.13309907555,-0.0620977265423,0.486,0.45,2,2,1,204,0
0.0548370836802,0.023947284561,0.0234411769928,0.887757167388,0.7,0.45,3,-1,0,206,0
0.0547870989657,0.023776352771,0.023439725285,1.02117536106,0.136,0.45,0,3,-1,206,0
0.0184154926423,1.03899084817,0.0872146805716,0.11452955592,0.626,0.45,1,1,1,207,0
1.20594164442,0.0350896001471,0.00793910651941,0.0570602954254,0.452,0.45,0,0,1,208,0
0.0534226639076,0.0301076123795,0.00361259556475,0.183238405192,0.7,0.45,3,-1,0,210,0
0.0597678840696,1.03329854487,0.00721454216631,0.0658413194897,0.618,0.45,1,1,1,210,0
0.0538796962027,0.0710229307277,1.04255192745,0.0521881258964,0.504,0.45,2,2,1,211,0
0.0545925525276,1.2441858926,0.00831087912586,0.0203757814592,0.493,0.45,1,1,1,212,0
0.0570386860057,0.0312507699518,0.00784845040532,1.06893367,0.397,0.45,3,3,2,213,0
0.0548983313865,0.0312500192451,0.00781569429777,1.05355104489,0.471,0.45,2,3,-1,214,0
1.3131251719,0.0312500020009,0.00781283584201,0.0868999720989,0.497,0.45,0,0,1,215,0
0.0197763106731,0.0312500002738,1.10729070005,0.0592279472952,0.438,0.45,2,2,2,216,0
0.296876262866,1.32185839371,0.0868547750881,0.309066011876,0.488,0.45,1,1,1,217,1
0.142183606262,0.051556601903,0.692931847916,1.06415800056,0.402,0.45,3,3,2,218,1
0.148293224755,0.144522513249,1.13482823123,0.193974303003,0.445,0.45,2,2,2,219,1
1.15858092004,0.0751127950323,0.0488282151223,0.197748787714,0.414,0.45,0,0,2,220,1
0.0915105148074,0.136573660931,0.059654802548,1.01869219871,0.475,0.45,3,3,1,221,1
1.00102673675,0.50057508894,0.0419703976814,0.195496779163,0.558,0.45,0,0,1,222,1
0.17508385971,0.0550220799021,1.17626002421,0.171124665092,0.483,0.45,2,2,1,223,1
0.162595724876,1.21196659817,0.0663564833247,0.134069842347,0.523,0.45,1,1,1,224,1
0.12495783347,0.0546875431495,1.18030739873,0.119818998855,0.443,0.45,2,2,2,225,1
0.115716989072,0.0514151834206,0.0421812231327,1.14881377825,0.368,0.45,3,3,2,226,1
0.229908651146,1.12924587314,0.036708018465,0.0846392148652,0.401,0.45,1,1,2,227,1
1.00980558826,0.0491473812103,0.0367550486943,0.0625274550223,0.365,0.45,0,0,2,228,1
0.113259976283,4.37666888717,0.000381935047714,0.0735285417839,0.497,0.45,1,1,1,229,1
0.100059799024,0.0546875005713,0.0236645823895,1.04547424679,0.448,0.45,3,3,2,230,1
1.70194302262,0.0544166591569,0.0234659877099,0.090237709997,0.404,0.45,0,0,2,231,1
0.0881809566167,0.0646796395047,1.26904395246,0.0467297494283,0.343,0.45,2,2,2,232,1
0.0949664380139,0.0627552290127,0.0443366446781,1.26594039013,0.32,0.45,3,3,2,233,1
0.096354345015,0.0609214187893,1.13716010754,-0.0508764372406,0.433,0.45,2,2,2,234,1
2.49089605121,0.0592675520603,0.050185444658,0.0412194647617,0.423,0.45,0,0,2,235,1
0.090437541324,0.0574050169738,1.18298507435,-0.00278121906776,0.359,0.45,3,2,-1,236,1
0.00190281101085,1.2319097966,0.028355233379,0.00622302591045,0.488,0.45,1,1,1,237,1
1.65879619008,0.0640522201911,0.0200638197847,0.0443055155032,0.393,0.45,0,0,2,238,1
0.0985312788999,1.05790545119,0.0172933740188,0.0692314852846,0.449,0.45,1,1,2,239,1
0.110217183629,0.680638094335,1.61098062078,0.013009145081,0.453,0.45,2,2,1,240,1
0.547145136842,2.35516072448,0.0271287594954,0.0180188641009,0.491,0.45,1,1,1,241,1
0.115462196256,0.0546888868272,1.01793509314,0.0227710063333,0.442,0.45,2,2,2,242,1
1.28526842213,0.0514211538573,0.051037050185,0.0282740904322,0.412,0.45,0,0,2,243,1
0.0506133405342,0.0596684702221,0.0158145831099,1.04978949104,0.432,0.45,3,3,2,244,1
1.26485400061,0.0584319764567,0.0241655349129,0.0660779235296,0.36,0.45,0,0,2,245,1
0.103696928987,0.0476839764381,1.09684953421,0.107547988797,0.324,0.45,2,2,2,246,1
0.107639938289,0.0486050523551,0.0390634088769,1.01559422929,0.333,0.45,3,3,2,247,1
0.118580074479,0.0602403994713,1.19149411722,0.0615678097776,0.424,0.45,2,2,2,248,1
0.112599354553,1.0688961414,0.0279996916087,0.0523145359622,0.374,0.45,1,1,2,249,1
1.2333046116,0.0517654595057,0.0348902527546,0.0527507406166,0.352,0.45,0,0,2,250,1
0.114092877729,1.04420961759,0.0268525928168,0.0158097034418,0.464,0.45,1,1,1,251,1
0.0773099069976,0.0625000791985,0.0303369703586,1.02164753639,0.508,0.45,3,3,1,252,1
0.0730888171557,1.040752617,0.0311749807585,0.0802911821851,0.613,0.45,1,1,1,253,1
1.64323820798,0.0625072984558,0.0312351489041,0.0784410109284,0.435,0.45,0,0,2,254,1
0.0939107552463,0.0476256997587,0.0273649376692,1.13730528019,0.424,0.45,3,3,2,255,1
0.0958527107334,0.0636692355145,1.05494500631,0.0875406730875,0.334,0.45,2,2,2,256,1
1.36270822286,0.0463257204862,0.028879503172,0.0489445442619,0.281,0.45,0,0,2,257,1
0.0729528399015,0.0523524055178,1.21609937265,0.0797001249035,0.329,0.45,2,2,2,258,1
0.0907687664454,0.0583693461085,0.0394219495267,1.00665558982,0.308,0.45,3,3,2,259,1
0.0958079352478,1.05369685817,0.0341387855736,0.034147208593,0.405,0.45,1,1,2,260,1
0.0915170775485,0.0546875078367,0.0282918607592,1.33999036626,0.405,0.45,3,3,2,261,1
1.2189805915,0.0546875001208,0.0198090462994,0.0391068474057,0.369,0.45,0,0,2,262,1
-0.00702941442257,1.08943869047,0.0158929803628,-0.0691541216494,0.491,0.45,1,1,1,263,1
0.0796403793597,0.0519486208698,1.11584583326,-0.0111408543981,0.467,0.45,2,2,1,264,1
0.368068098237,2.66518083911,0.0573987472245,0.00136964348722,0.498,0.45,1,1,1,265,1
2.56974710913,0.0343641369023,0.0241012667517,-0.00220273915885,0.468,0.45,0,0,1,266,1
0.099342847841,0.04186380922,1.24031691551,0.0101313403494,0.419,0.45,2,2,2,267,1
0.0982155435193,0.0486676436792,0.0234477002039,1.30791590049,0.357,0.45,3,3,2,268,1
2.42790780124,0.0470709349429,0.0234377602033,0.0498345913643,0.368,0.45,0,0,2,269,1
0.093083507064,0.0526736053563,0.0351600021568,1.30109992092,0.425,0.45,3,3,2,270,1
0.0890769173254,0.0634717705782,1.03351651597,0.115333392369,0.404,0.45,2,2,2,271,1
4.31106754398,0.0503712429684,0.0206110066497,0.0349583882388,0.43,0.45,0,0,2,272,1
0.0742133776527,2.22762928042,0.0585446387511,0.193518176723,0.368,0.45,1,1,2,273,1
0.0641409540213,0.0390625030004,0.0291627319568,1.04808326402,0.379,0.45,3,3,2,274,1
0.073054962353,1.25482408533,0.0212509252148,0.0391568128051,0.5,0.45,1,1,1,275,1
0.0800552012086,0.0487263095771,1.253684111,0.0611284446482,0.459,0.45,2,2,1,276,1
0.415503609811,1.16977030517,-0.0471436615387,-0.129342319011,0.499,0.45,1,1,1,277,1
0.0907778117729,0.0346423109215,1.01912882309,0.0174317083245,0.483,0.45,2,2,1,278,1
1.09354735396,0.0607843185681,0.031250480385,0.00722164420236,0.5,0.45,0,0,1,279,1
0.0493133105617,0.041167243084,0.0169950409088,1.21678996315,0.458,0.45,3,3,1,280,1
0.063982860121,1.11113485672,0.0407712522358,-0.0743844821575,0.462,0.45,2,1,-1,281,1
0.0674878877373,0.0317204673115,0.0239977685583,1.29376453409,0.455,0.45,3,3,1,282,1
1.21037277192,0.0344485081146,0.0234871659302,0.038790781916,0.439,0.45,0,0,2,283,1
0.0495219899117,1.147453209,0.149778894242,-0.0662453463055,0.478,0.45,1,1,1,284,1
0.0798271123098,0.0468769367981,0.0185645055702,1.33316724224,0.443,0.45,3,3,2,285,1
0.0715344712182,1.29527748871,0.0141298982292,0.00422148583135,0.472,0.45,1,1,1,286,1
1.91353586658,0.0350036697304,0.00871693461745,0.00640293299039,0.376,0.45,0,0,2,287,1
0.072600950168,0.0454768645416,1.66802076808,0.0037459608359,0.403,0.45,2,2,2,288,1
0.117611536097,1.44670841692,-0.0443718359251,-0.107470193169,0.491,0.45,1,1,1,289,1
0.0741345052981,0.0600192659118,0.00956510132497,1.59795999321,0.422,0.45,3,3,2,290,1
0.0670292199654,0.0472844945067,1.75891978327,-0.0962991520041,0.473,0.45,2,2,1,291,1
1.01058618258,0.0358978394834,0.0143293982669,0.029073064848,0.462,0.45,0,0,1,292,1
0.0367069466275,0.0522111957715,1.12006488687,0.0304403051195,0.403,0.45,2,2,2,293,1
0.0403940731231,0.0544044350728,0.016943865658,1.16000390931,0.4,0.45,3,3,2,294,1
1.45008770794,0.0502167764675,0.0282789049531,0.00788079733428,0.414,0.45,0,0,2,295,1
0.0560202037298,0.0397063015045,0.0245291041875,1.15531320347,0.435,0.45,3,3,2,296,1
0.0614921638733,1.24294204714,0.0246209308147,-0.00198782625316,0.482,0.45,1,1,1,297,1
0.0576516318478,0.0452062654141,1.35207699873,0.0265673664183,0.477,0.45,2,2,1,298,1
0.0600845320506,1.04450869754,0.024326592783,0.00986580547665,0.462,0.45,1,1,1,299,1
1.82704605379,0.0403613315891,0.0541044131066,0.168294943843,0.411,0.45,0,0,2,300,1
0.0363165549163,1.04411275861,0.0361972160764,0.0446921712233,0.543,0.45,1,1,1,301,1
0.0582022158694,0.070320473194,1.26805502879,0.0369541229758,0.408,0.45,2,2,2,302,1
0.0579264685014,0.070312889623,0.0156312870739,1.21427451667,0.324,0.45,3,3,2,303,1
1.02692917335,0.0529356321193,-0.000735000992262,0.0098320945248,0.39,0.45,0,0,2,304,1
0.0773371479998,0.0529082339969,1.12544249719,0.0253257548123,0.336,0.45,3,2,-1,305,1
0.0674533739812,0.0544899807704,1.01066546663,0.0306138124074,0.339,0.45,2,2,2,306,1
1.03376226568,0.0455557666481,0.0390629454073,-0.0360154146084,0.414,0.45,0,0,2,307,1
0.0327941915179,1.05420084593,0.0333961015459,-0.0381494389948,0.522,0.45,1,1,1,308,1
2.5556946445,0.0387974867135,0.00747933387448,0.0212007542611,0.551,0.45,0,0,1,309,1
0.040037699522,0.0456185503247,1.17935358157,0.0278804956689,0.451,0.45,2,2,1,310,1
0.0454331660972,1.8167458263,0.0126830037509,-0.0819067402673,0.451,0.45,1,1,1,311,1
0.0433898305794,0.0468756574467,0.0204198061061,1.19258068443,0.438,0.45,3,3,2,312,1
0.0468382097645,1.16591194256,0.0213777726891,0.0491920807264,0.456,0.45,1,1,1,313,1
0.0493615115524,0.0441429568156,0.185009428102,1.12007266778,0.469,0.45,3,3,1,314,1
1.65660592309,0.0404161629057,0.0144200070109,0.00426010075816,0.424,0.45,0,0,2,315,1
0.0229692135196,0.0346079827827,1.39544515024,0.263829947561,0.344,0.45,2,2,2,316,1
0.051313041931,0.0349276874632,0.00781315629971,1.14661687784,0.398,0.45,3,3,2,317,1
-0.0192335437723,0.424677899432,1.25027282079,0.357774121146,0.51,0.45,2,2,1,318,1
1.75976073607,0.0483713002199,0.0126921073363,0.0134436357317,0.448,0.45,0,0,2,319,1
0.00883618135709,0.0518966243453,0.0155319886713,1.19009528126,0.549,0.45,3,3,1,320,1
-0.00363872849119,1.65486897671,0.00147391922175,0.0450772433149,0.462,0.45,1,1,1,321,1
2.2189276775,0.0411419343198,0.0324016130909,0.152046975048,0.402,0.45,0,0,2,322,1
0.0170889847044,1.12293733341,0.156490248843,0.371970055856,0.478,0.45,1,1,1,323,1
0.0499524407296,0.054694341936,1.80793367276,-0.00457405070374,0.395,0.45,2,2,2,324,1
0.0614471804348,1.10066554081,0.00378198109769,0.0664503791671,0.546,0.45,1,1,1,325,1
1.21031344202,0.0287160043657,0.00273991999299,-0.00374155559408,0.392,0.45,0,0,2,326,1
0.0298630314236,0.0447478692751,0.00228979699148,1.38953917203,0.395,0.45,3,3,2,327,1
-0.0377933047385,1.42524422236,-0.00538715989392,-0.0712375889997,0.375,0.45,2,1,-1,328,1
0.0535071531811,0.041016236639,0.0157484779409,1.04240941293,0.471,0.45,3,3,1,329,1
1.01144338694,0.0359622288526,0.0106820000948,-0.0219026986584,0.405,0.45,0,0,2,330,1
0.0498913121578,0.0519739355553,1.23775520527,0.0203350293039,0.306,0.45,2,2,2,331,1
3.03130263606,0.0476093561643,0.0156293917019,0.0144494513005,0.404,0.45,0,0,2,332,1
0.0330509416412,1.00465582639,0.0288656578395,0.0615805097106,0.411,0.45,1,1,2,333,1
0.0501848350105,0.0390978566785,0.0240092397273,1.39371339399,0.414,0.45,3,3,2,334,1
0.0534628749189,1.05078105501,0.0118630622945,0.00722720281437,0.414,0.45,1,1,2,335,1
0.063189337254,0.0471855719695,1.00701183198,0.00407447206494,0.41,0.45,2,2,2,336,1
-0.0289908941959,1.10051589103,-0.0107627179755,0.0291219879475,0.445,0.45,1,1,2,337,1
0.0527640225942,0.0546936207332,0.0126782398607,1.06141286342,0.491,0.45,3,3,1,338,1
0.054628174491,0.0546404603401,1.05241964243,0.0868600501489,0.489,0.45,2,2,1,339,1
1.13269735637,0.0821136194949,0.0346883648688,-0.0377065619604,0.412,0.45,0,0,2,340,1
0.034215170259,0.0392866444784,0.00180821815879,1.03936627993,0.512,0.45,3,3,1,341,1
1.8870912963,0.0776575736257,0.00025676631543,0.0390660791419,0.438,0.45,0,0,2,342,1
0.0181043118911,0.0409886121216,1.01453576064,-0.0343113828089,0.389,0.45,2,2,2,343,1
0.0464747096727,0.0359851924477,0.0183836139372,1.09627378906,0.361,0.45,3,3,2,344,1
0.323056128493,1.26542580105,0.0613147656913,0.0205963876099,0.35,0.45,1,1,2,345,1
0.0487326118587,0.0814335792772,1.14287778643,0.390881282912,0.408,0.45,2,2,2,346,1
0.0722028233565,1.07192588009,0.0394125352362,0.109211866401,0.564,0.45,1,1,1,347,1
1.12932807892,0.031275631997,0.0112409971606,0.0248277838122,0.376,0.45,0,0,2,348,1
0.0591992947555,1.27090561901,0.0176263033843,-0.000172869249332,0.446,0.45,1,1,2,349,1
0.0238731757476,0.0375658421343,1.19469435654,0.0524485175068,0.41,0.45,2,2,2,350,1
0.0596614178997,0.0398322434903,0.0178105950372,1.16821077851,0.328,0.45,3,3,2,351,1
1.11489081209,0.0680527001641,0.0238528715634,0.0414599517626,0.316,0.45,0,0,2,352,1
0.0366375453658,0.0489366674022,1.24224466764,0.201850756608,0.277,0.45,3,2,-1,353,1
0.0589557770612,0.04717084271,1.2449571351,0.0354487119843,0.346,0.45,2,2,2,354,1
1.41909306533,0.0463036292931,0.0213250463829,0.00825164893962,0.423,0.45,0,0,2,355,1
0.0822829069616,1.20805064588,-0.020644797511,-0.0641983457867,0.452,0.45,1,1,1,356,1
1.58616069763,0.0374291929018,-0.00748489187456,0.000513589798666,0.423,0.45,0,0,2,357,1
0.0554543347562,0.045948979682,1.20914983479,-0.0146866486533,0.384,0.45,2,2,2,358,1
0.0368417871097,1.18582754888,-0.105135213041,-0.280671304948,0.428,0.45,1,1,2,359,1
0.0792206213832,0.0546902756081,-0.00389041050591,1.0044196393,0.437,0.45,3,3,2,360,1
1.71042391851,0.051740887553,0.00619501396675,0.00378947898271,0.371,0.45,1,0,-1,361,1
0.0420323419872,1.3058002135,0.00836919250338,0.0287564351025,0.378,0.45,2,1,-1,362,1
0.0486090392329,0.0547425316275,-0.00408298878521,1.22039822136,0.419,0.45,3,3,2,363,1
2.20695551032,0.0558433974412,0.0198568756249,0.0550966975799,0.416,0.45,0,0,2,364,1
0.0609300327633,0.0454950748034,1.1311702871,0.0097463576324,0.403,0.45,2,2,2,365,1
1.10427730435,0.0473253263839,-0.00416262111278,-0.0333889866364,0.47,0.45,0,0,1,366,1
0.0532448657991,0.0465392242375,0.00627104995169,1.17929782578,0.444,0.45,3,3,2,367,1
0.075628654333,1.26173308461,-0.0049499402702,-0.0277304414016,0.489,0.45,1,1,1,368,1
0.0532486447307,0.0312500649016,0.0908301815292,1.05085209057,0.489,0.45,3,3,1,369,1
0.0689137113584,0.0364418185519,1.02814601345,0.0466872578574,0.453,0.45,2,2,1,370,1
0.0604290064556,1.12564365673,0.000799560072924,0.166136536673,0.477,0.45,1,1,1,371,1
3.40945500955,0.0390630124606,0.0102355770046,0.0398918596543,0.434,0.45,0,0,2,372,1
0.05506267094,1.04223627286,-0.0452311643094,-0.0446432067918,0.494,0.45,1,1,1,373,1
1.61582740126,0.0245752418282,0.0133531405091,0.0119418442599,0.553,0.45,0,0,1,374,1
0.0391519136822,0.0447068999806,1.24332512122,0.0287412907948,0.476,0.45,2,2,1,375,1
0.0430417099138,0.0465241060763,0.0156332974508,1.22221086488,0.36,0.45,3,3,2,376,1
1.07643329671,0.0387740202608,0.0132135550519,-0.00595662047294,0.343,0.45,0,0,2,377,1
0.054196042975,0.0364451676434,0.0378721090238,0.0541448754203,0.7,0.45,3,-1,0,379,1
0.0539595417489,0.0368213403787,0.0305478981096,1.26576415776,0.119,0.45,2,3,-1,379,1
1.37861842019,0.0365720629972,0.0120597054344,0.0146786061528,0.42,0.45,0,0,2,380,1
0.317310797218,1.79756787964,-0.00172737189435,0.0353808811486,0.449,0.45,1,1,2,381,1
0.0743791112215,0.0356838941085,1.0492686649,0.0224517799543,0.326,0.45,2,2,2,382,1
0.217781102395,1.47506648228,0.0554584880556,0.0360499751029,0.474,0.45,1,1,1,383,1
0.0673244066156,0.0320223283533,0.0108721611588,1.25844042494,0.447,0.45,3,3,2,384,1
0.0513908477317,1.09753486235,-0.00885976856859,-0.0362316693708,0.491,0.45,1,1,1,385,1
0.0515908735063,0.0468765032773,0.0131914931498,1.14822624502,0.437,0.45,3,3,2,386,1
1.29681710708,0.044830157415,0.0117959382341,0.0452212421456,0.424,0.45,0,0,2,387,1
0.0330480660989,0.0316572676875,1.00665316923,0.0449389830075,0.443,0.45,2,2,2,388,1
1.13334650841,0.0345249976759,0.0138354065928,0.0225361713521,0.459,0.45,0,0,1,389,1
0.0466868239308,0.0316498166289,0.0225853959318,1.02597685619,0.466,0.45,3,3,1,390,1
0.0454696543969,0.276475120139,1.0165877847,0.146956643246,0.495,0.45,2,2,1,391,1
0.0573910420798,0.0370808738699,0.00812610999321,1.1868868762,0.534,0.45,3,3,1,392,1
0.0410772352108,1.07444509297,0.00525007004063,0.0195753377786,0.473,0.45,1,1,1,393,1
1.90390202741,0.0629946549131,0.00743572334861,0.0220000791232,0.379,0.45,0,0,2,394,1
-0.215407131458,1.11852351167,0.0545378693808,-0.00611452451567,0.508,0.45,1,1,1,395,1
0.0622016287077,0.0527610020481,1.01352204137,-0.0546542648231,0.361,0.45,2,2,2,396,1
0.0738629063961,1.2802278441,0.143859437702,0.251547136076,0.432,0.45,1,1,2,397,1
0.0668096226269,0.0625157661098,0.00571135139974,1.17388559231,0.45,0.45,3,3,1,398,1
0.0993517776743,1.53994473837,0.000730207692777,0.0164211097814,0.409,0.45,2,1,-1,399,1
3.77105885759,0.0727581124872,0.00799277667157,0.00551932875084,0.511,0.45,0,0,1,400,1
0.0639786837756,0.0436509314332,1.08622209278,0.0790266718257,0.506,0.45,2,2,1,401,1
0.0634588722204,0.0498524503398,3.26024242604e-05,1.02264135406,0.429,0.45,3,3,2,402,1
2.08980154506,0.0439756584105,-0.00132474856618,0.0312618446633,0.438,0.45,0,0,2,403,1
0.0280035727296,0.0355097829001,-0.00122314054469,1.17078239194,0.412,0.45,3,3,2,404,1
0.0480030189001,1.12560809677,0.00300437099493,0.0454856370137,0.451,0.45,1,1,1,405,1
0.042741904262,0.0436666988606,1.03034202223,0.0601238424785,0.409,0.45,2,2,2,406,1
0.0340445947639,1.0746461548,0.00830836419294,-0.0486748062396,0.443,0.45,1,1,2,407,1
1.07793338001,0.0303932435508,-0.00329217960103,-0.0686436834291,0.452,0.45,0,0,1,408,1
0.0634860964273,1.03645731089,0.0986778256935,0.183513079302,0.54,0.45,1,1,1,409,1
1.06684188798,0.033054122823,0.00311152116156,0.0107239551965,0.498,0.45,0,0,1,410,1
0.0652982644672,0.0332759606783,1.08457632159,0.0864381656872,0.469,0.45,2,2,1,411,1
0.0713646861622,0.0328722588289,-0.00766957931245,1.04440320586,0.379,0.45,3,3,2,412,1
1.21897293864,0.0559684958036,0.00123898450379,0.0164510436458,0.419,0.45,0,0,2,413,1
0.0410850302464,0.0476081772528,0.00963862313416,1.22920247569,0.457,0.45,3,3,1,414,1
0.0635999008636,0.0427715488368,1.07920122532,-0.0151753770309,0.422,0.45,2,2,2,415,1
0.082406468915,1.21109483082,0.031450758482,0.0479298809316,0.351,0.45,1,1,2,416,1
0.0659430781608,0.0372402300161,0.00866188696873,0.102163604349,0.7,0.45,3,-1,0,418,1
0.0640682387292,0.0340858655637,0.00824481767032,1.02295727543,0.218,0.45,1,3,-1,418,1
0.0535694906682,0.0333111288176,0.0126442551715,1.08728766147,0.38,0.45,2,3,-1,419,1
1.3228452526,0.0258578900679,0.0100339574042,-0.0305993991363,0.464,0.45,0,0,1,420,1
-0.0336614713469,2.43064575468,0.776773128027,0.0171617576492,0.468,0.45,1,1,1,421,1
0.0706995809986,0.0393069347407,0.02425208362,0.0956260734909,0.7,0.45,3,-1,0,423,1
1.05717808837,0.040639834738,0.00257351553979,0.0247539942589,0.481,0.45,0,0,1,423,1
0.0390773973612,0.0474096134817,1.07649782954,0.0225428956602,0.353,0.45,2,2,2,424,1
1.05326214005,0.053385700982,0.0132064223273,0.0435911836687,0.42,0.45,0,0,2,425,1
0.0589210447401,0.0350605203739,0.00607468538809,1.03572579161,0.369,0.45,3,3,2,426,1
0.0750738048853,0.0430066856245,1.13863377428,-0.0646784569946,0.457,0.45,2,2,1,427,1
0.0727002333642,1.01525541695,0.0156343010549,0.0258339226003,0.372,0.45,1,1,2,428,1
0.104208564261,0.056871228604,1.16175714904,0.0307022722511,0.402,0.45,2,2,2,429,1
0.0787601659792,0.0322998229184,0.00153991683464,1.00867391744,0.543,0.45,3,3,1,430,1
0.152650692423,1.04680042372,0.0709369101779,-0.0251020597348,0.49,0.45,1,1,1,431,1
1.36080229955,0.0404109378822,0.00830884717218,0.0145847126547,0.341,0.45,0,0,2,432,1
0.0560481307323,1.20485845465,0.0241797495034,-0.0561275124299,0.518,0.45,1,1,1,433,1
0.0921103954723,1.13713830739,0.0156274678484,0.080086203075,0.58,0.45,1,1,1,434,2
1.37635217606,0.0390629559074,0.0102676880762,0.0860844731095,0.398,0.45,0,0,2,435,2
0.075452841495,0.0313551197897,1.06555387274,0.0104180522308,0.401,0.45,2,2,2,436,2
0.0882931430886,0.0438027682116,0.00702917461753,1.03922066871,0.321,0.45,3,3,2,437,2
1.87126004682,0.0802039405667,0.00280716714739,0.0639424814376,0.37,0.45,0,0,2,438,2
0.0626688768433,0.0467550666064,-0.00390041222748,0.102688295634,0.7,0.45,3,-1,0,440,2
0.0630374888087,0.0433855484243,1.00535093981,0.0397926986095,0.509,0.45,2,2,1,440,2
1.62659175264,0.0396701277614,0.0156808589126,0.0112551537321,0.567,0.45,0,0,1,441,2
0.07027852056,0.0330464701603,0.720618599917,0.00401549251311,0.7,0.45,1,-1,0,443,2
0.182606538451,0.057456233215,0.0401662328607,1.41143395071,0.523,0.45,3,3,1,443,2
0.183142487695,1.31893555736,0.0850178559254,0.0727028214156,0.526,0.45,1,1,1,444,2
0.202021804799,0.0722894614302,1.15564662259,0.0954125672009,0.454,0.45,2,2,1,445,2
0.281789143675,1.1058319407,0.00804450021923,0.00399224939666,0.404,0.45,1,1,2,446,2
1.21041436492,0.167097867334,0.0485592116619,0.0195870669145,0.312,0.45,0,0,2,447,2
0.106802719018,0.0853781384396,1.02565058289,0.0237201530419,0.303,0.45,2,2,2,448,2
0.100772540252,0.0438673530334,1.07883185927,0.136274078134,0.337,0.45,3,2,-1,449,2
1.69494309903,0.0300958700111,0.0150208191094,0.0866307355933,0.472,0.45,0,0,1,450,2
0.101485796567,0.0343754578361,0.00219146494631,1.01709742365,0.516,0.45,3,3,1,451,2
0.101762854963,0.325891542734,1.05719893401,0.112630658733,0.48,0.45,2,2,1,452,2
0.128817850029,1.14240894951,-0.0109675314926,0.0393932574294,0.373,0.45,1,1,2,453,2
0.0922967908578,0.0275688309736,1.07443306014,0.0793206862956,0.415,0.45,2,2,2,454,2
1.04008553942,0.0350693910334,0.0338951373954,0.0103924011086,0.428,0.45,0,0,2,455,2
0.0827150360246,1.2960129023,-0.00377900824806,-0.00815447905922,0.48,0.45,1,1,1,456,2
0.103081669398,0.0546875298329,-2.38896399954e-05,0.0427272032141,0.7,0.45,3,-1,0,458,2
0.0997515924916,1.20959190694,0.00191159069027,0.00951650899808,0.432,0.45,1,1,2,458,2
0.110035839138,0.0429898799548,1.06615502396,0.00749571105426,0.37,0.45,2,2,2,459,2
2.46990528918,0.0547426776798,0.031250504339,0.0113204708612,0.403,0.45,0,0,2,460,2
0.100035743059,0.0306514017805,0.00623974114751,1.17108626073,0.447,0.45,3,3,2,461,2
0.104581696565,0.0328920613857,1.1254733247,0.405434684541,0.408,0.45,2,2,2,462,2
0.0982523106331,0.0433653277691,0.00781256114009,1.04463035921,0.487,0.45,3,3,1,463,2
1.28779858824,0.0454043387598,0.00200156917216,0.0388735507237,0.469,0.45,0,0,1,464,2
0.114628190814,0.0479006569837,1.21597120551,0.0922642924782,0.403,0.45,2,2,2,465,2
0.12130417633,1.33050533123,0.0103122080139,0.0286824159484,0.462,0.45,1,1,1,466,2
4.35428606324,0.0468750083914,0.0152901826167,0.0380254630434,0.411,0.45,0,0,2,467,2
1.09108535709,0.0332283457863,-0.00779805429387,-0.0660899753725,0.456,0.45,1,0,-1,468,2
0.0685086010929,0.0351975484175,0.00387854457395,1.1936729889,0.412,0.45,3,3,2,469,2
0.0603778033826,1.34249696195,-0.00397641956419,0.0705466313226,0.411,0.45,1,1,2,470,2
0.0785353708985,0.020383184008,1.05313206163,0.507639279992,0.409,0.45,2,2,2,471,2
0.0643676124244,0.0485719531694,0.0156259831006,1.01390097376,0.388,0.45,3,3,2,472,2
1.34265556409,0.0643994837943,0.0278495015722,0.0492716133105,0.406,0.45,0,0,2,473,2
0.0722650374832,0.0426971855402,1.04312731561,0.0597062845387,0.392,0.45,2,2,2,474,2
1.33238663233,0.0393277464673,0.0070464284834,-0.0384407744174,0.514,0.45,0,0,1,475,2
0.0492587807903,0.0390872777189,0.00036491682869,1.1215530008,0.578,0.45,3,3,1,476,2
0.0696681749679,0.0435186822031,1.09929370559,0.0159355981128,0.483,0.45,2,2,1,477,2
0.060273272566,1.01322070619,0.00536592768412,0.0503224158372,0.46,0.45,1,1,1,478,2
0.0639013653614,0.0312503026875,0.0142469668522,1.01535361658,0.428,0.45,3,3,2,479,2
0.0891384356459,1.6415725005,0.0211656446188,0.125682008982,0.462,0.45,1,1,1,480,2
1.26173938783,0.0455983527706,0.0283699592711,-0.124803315455,0.401,0.45,0,0,2,481,2
0.0411770687385,1.03537936048,0.0296140823526,0.0832250087233,0.452,0.45,1,1,1,482,2
0.0625846245596,0.0319534508147,0.00248133920323,1.03444566971,0.471,0.45,3,3,1,483,2
0.07993466631,0.0442676049532,1.07587170046,-0.0516743793424,0.519,0.45,2,2,1,484,2
1.00072781164,0.065034416398,0.0295288927075,0.0689141671135,0.522,0.45,0,0,1,485,2
0.0459587205085,0.0352374964832,0.0222404069406,1.14107931858,0.493,0.45,3,3,1,486,2
1.09270891963,0.0270164784585,0.0243510749716,0.0638752413984,0.463,0.45,0,0,1,487,2
0.0634421011576,0.0398176291392,1.04107669032,0.13613948836,0.529,0.45,2,2,1,488,2
0.122758854396,1.15039575892,0.0111983901705,0.0951459626459,0.406,0.45,1,1,2,489,2
0.0881626029201,0.0405653015213,1.21734394735,-0.0489441258536,0.338,0.45,2,2,2,490,2
0.082766946657,0.0522493387954,0.0156250356709,1.15618198681,0.291,0.45,3,3,2,491,2
0.0389431590646,1.70226621658,-0.00769008374877,-0.0863898939598,0.355,0.45,1,1,2,492,2
2.28515875525,0.052919854163,0.00354221831712,0.00674517101718,0.36,0.45,0,0,2,493,2
0.0863633226176,1.05546826462,0.0166390296662,0.0110334174891,0.399,0.45,1,1,2,494,2
2.01529983072,-0.0116177039396,0.0215784794341,0.206024868501,0.394,0.45,0,0,2,495,2
0.0834878068917,0.0440781038576,0.00152894585253,1.39507495148,0.364,0.45,3,3,2,496,2
0.0789076620728,0.0413313597526,1.20474350159,-0.0933776425797,0.42,0.45,2,2,2,497,2
0.0753826139475,0.0318036262561,0.505991581219,1.18810388825,0.638,0.45,3,3,1,498,2
3.35269283264,0.0222649696608,0.022756177626,-0.0234359862216,0.473,0.45,0,0,1,499,2
0.0560164823912,0.0423551521711,1.23003422519,0.0128010850489,0.368,0.45,2,2,2,500,2
3.64780414578,0.030733058219,0.0156253466498,-0.00696829646846,0.416,0.45,0,0,2,501,2
0.0803786725662,1.01259346184,-0.000401399670131,-0.0218378734406,0.351,0.45,1,1,2,502,2
0.077502984271,0.0312500185155,0.0202297393654,1.17972903298,0.406,0.45,3,3,2,503,2
0.128446918271,1.36053225928,0.00691900916814,-0.00379022047901,0.412,0.45,1,1,2,504,2
0.0618537594269,0.0270295876501,1.14028157431,0.1067925594,0.412,0.45,2,2,2,505,2
0.136725142268,1.25200269313,0.0380077585743,0.125541579303,0.527,0.45,1,1,1,506,2
0.0990460627251,0.0230449694517,1.02063961904,0.196525871161,0.413,0.45,2,2,2,507,2
0.0600920859083,0.0311360720465,0.00290346236393,1.00336333498,0.354,0.45,3,3,2,508,2
1.12228734726,0.0256083315477,-0.0155981770541,-0.117838027639,0.43,0.45,0,0,2,509,2
0.0289180429874,0.0443652456925,1.03998842678,0.013160031701,0.314,0.45,2,2,2,510,2
1.01060996893,0.143035829426,-0.00925461957978,-0.0838962430815,0.511,0.45,0,0,1,511,2
0.0452181503685,0.0424925721021,0.00548891011318,1.13843045606,0.405,0.45,3,3,2,512,2
0.028109108399,0.0205211008862,1.1209470607,0.258499193125,0.432,0.45,2,2,2,513,2
0.0674359016412,1.01116309514,-0.0248324081928,0.139310191673,0.508,0.45,1,1,1,514,2
0.0534200604102,0.0338582693258,0.00418418473082,1.12002405837,0.429,0.45,3,3,2,515,2
0.0850850208995,1.42310847946,-0.00159347697132,0.0309153919288,0.372,0.45,1,1,2,516,2
1.75939782634,0.0213621000741,0.0127595729556,-0.0256886380787,0.351,0.45,0,0,2,517,2
0.0975269726277,1.22981519186,0.0225784399008,0.0145161294755,0.485,0.45,1,1,1,518,2
0.0515338643284,0.039063265207,1.05242492973,0.0199554435233,0.412,0.45,2,2,2,519,2
2.29533261353,0.0416602283407,0.0073643688673,-0.0689316806278,0.437,0.45,0,0,2,520,2
0.0431898833318,0.0276735341547,0.0140179102599,1.06163477019,0.371,0.45,3,3,2,521,2
1.13217110529,0.0395180101374,0.0140980333753,0.048770742606,0.373,0.45,0,0,2,522,2
0.0398374405758,0.0251910964462,1.20033505382,0.0336880805021,0.449,0.45,2,2,2,523,2
0.0383127826856,0.0243375524546,-0.00681562683085,1.05581371788,0.489,0.45,3,3,1,524,2
-0.0225630324015,0.0317972843429,1.68006232113,0.0555819317817,0.619,0.45,2,2,1,525,2
0.0705666448416,1.09854677818,0.0435651586368,0.194062505801,0.467,0.45,1,1,1,526,2
0.0529555934987,0.0237157540736,-0.00212035384018,1.15013305226,0.434,0.45,3,3,2,527,2
0.050392427717,1.14147423168,0.003795182763,0.0766376646104,0.381,0.45,1,1,2,528,2
2.74060432569,0.0312511592051,0.0145433576484,0.0707034825462,0.411,0.45,0,0,2,529,2
0.0786996316448,1.24792231243,0.00297447700347,0.02821511522,0.496,0.45,1,1,1,530,2
3.73137092275,0.0340338983815,0.0139854969528,0.0422770263588,0.419,0.45,0,0,2,531,2
0.0349289175818,0.0309489660805,1.05736650027,0.0838668096606,0.324,0.45,2,2,2,532,2
0.0456474128584,0.0244373768681,0.00781671747616,1.05874530101,0.336,0.45,3,3,2,533,2
0.00496524674906,1.05452981286,-0.00867689984968,-0.0384058832035,0.346,0.45,0,1,-1,534,2
0.0553024556943,0.0312944041329,-0.00210659887751,1.04516640525,0.474,0.45,3,3,1,535,2
0.0549589122656,0.0312544453999,1.01251423757,0.0969522129715,0.469,0.45,2,2,1,536,2
2.26980853243,0.0198546092408,0.00577213234716,0.0731151548576,0.438,0.45,0,0,2,537,2
0.0217566804683,1.06845105134,-0.0155214153498,-0.0473228743387,0.346,0.45,1,1,2,538,2
0.0576858907834,0.0243439033035,0.168163422493,1.07806866193,0.449,0.45,3,3,2,539,2
0.0721964774323,1.1924409534,0.0193580201906,-0.00663127976287,0.513,0.45,1,1,1,540,2
0.0507767825727,0.0241842591138,1.01651467001,-0.0555917992983,0.447,0.45,2,2,2,541,2
0.0262012557127,1.13901231943,0.0160128259256,0.0410378675294,0.512,0.45,1,1,1,542,2
1.19138410471,0.0255742399495,0.0286925307006,-0.0176109653444,0.509,0.45,0,0,1,543,2
0.0620850573177,0.0351001696294,0.00771818801543,1.05275250985,0.507,0.45,3,3,1,544,2
0.056363476931,0.0296487508137,1.08977299717,0.18439027341,0.422,0.45,2,2,2,545,2
1.10725027909,0.0302141655103,0.0238209367097,0.0813187977525,0.48,0.45,0,0,1,546,2
0.0709631202328,0.0373374680638,1.13578780041,0.019939532618,0.424,0.45,2,2,2,547,2
0.0790666537975,0.038979970164,0.00781413864742,0.0722994336089,0.7,0.45,3,-1,0,549,2
0.0842812510984,1.15531408258,0.00317959776249,0.0146079788113,0.522,0.45,1,1,1,549,2
0.073178949337,0.0312523075729,0.00752527157864,0.0208557317286,0.7,0.45,3,-1,0,551,2
0.07994674382,0.0312509333392,0.00768115510643,1.10179840505,0.253,0.45,0,3,-1,551,2
0.0717655155626,0.0312500252114,0.00780883217668,0.0222886893633,0.7,0.45,1,-1,0,553,2
0.0668873670462,0.0241838590965,1.63786478747,0.0164969015514,0.532,0.45,2,2,1,553,2
0.0284623342661,1.33476596736,0.000829384391868,-0.111549650424,0.448,0.45,1,1,2,554,2
1.11308532003,0.00693960165385,-0.00896851271645,0.000243183208786,0.346,0.45,0,0,2,555,2
0.0903275105621,0.0309239768208,0.0631829244301,1.09076041102,0.425,0.45,3,3,2,556,2
0.137109814923,0.0730484412424,1.03695379167,0.349404996531,0.318,0.45,2,2,2,557,2
0.0701022050123,0.0416980055329,-0.00425391686252,1.01626347473,0.45,0.45,3,3,1,558,2
1.02893059579,0.0364876489534,-0.00116480991343,0.00302684169797,0.465,0.45,0,0,1,559,2
0.0617562074558,0.0360840779666,1.16423828453,0.0451834212926,0.394,0.45,2,2,2,560,2
0.0711011958473,1.14595874065,0.0760824751284,0.316066699808,0.431,0.45,1,1,2,561,2
0.0633725356695,0.0143467570627,1.18092115419,-0.0693304584048,0.395,0.45,2,2,2,562,2
1.47686992336,0.0144225634168,0.0141929709498,0.0890119456708,0.43,0.45,0,0,2,563,2
0.496171850582,2.14357491986,-0.00775264961445,0.000363857063091,0.431,0.45,1,1,2,564,2
0.0571972749734,0.0158677086277,0.000592092485963,1.12692670638,0.46,0.45,3,3,1,565,2
1.03911554491,0.0416841958946,-0.0139273600109,-0.0799624686901,0.376,0.45,1,0,-1,566,2
0.0985757370777,0.016745881713,1.13155911654,-0.183498237963,0.358,0.45,2,2,2,567,2
0.0763177504842,0.0313663283607,0.0164102262847,0.0745082893083,0.7,0.45,3,-1,0,569,2
0.0779724641936,0.0860247585417,0.0157103133265,0.0298049196903,0.7,0.45,0,-1,0,570,2
0.0938791196858,0.0390864744551,-0.00825130541757,-0.0162497953471,0.7,0.45,2,-1,0,571,2
0.296225129076,0.235977429991,0.180055954312,0.366321913856,0.7,0.45,0,-1,0,572,2
0.145545051819,0.141469780823,0.115031394322,1.03450016541,0.434,0.45,3,3,2,572,2
0.0820810188024,1.28915279779,0.00230837358476,0.173542211158,0.36,0.45,1,1,2,573,2
1.41453836158,0.0763858117907,0.0637651053171,0.0351478901147,0.381,0.45,0,0,2,574,2
1.00588681077,0.0729579106429,0.0939505291715,0.0140479316908,0.4,0.45,1,0,-1,575,2
0.0393215055507,0.0403161085927,0.632465647741,1.07820474898,0.371,0.45,3,3,2,576,2
0.0930656275873,0.0492941067542,1.04180325611,0.0343634500355,0.4,0.45,2,2,2,577,2
0.0940689903794,1.06541685663,0.00788792974309,0.0235651651673,0.365,0.45,1,1,2,578,2
1.23615984356,0.268355265472,0.151233708396,0.241565165184,0.33,0.45,0,0,2,579,2
0.175068703136,0.159686235316,0.0782305284907,1.06932261804,0.328,0.45,3,3,2,580,2
0.164012532583,0.0943909719448,1.02328077905,0.570753233483,0.427,0.45,2,2,2,581,2
1.15305313457,0.0490275654125,0.0384491608821,0.274459550191,0.398,0.45,0,0,2,582,2
0.0781843352494,0.0956595748036,1.19497407326,0.214008377505,0.351,0.45,2,2,2,583,2
0.0751182386789,0.0428227373513,0.254967250994,1.18664248586,0.328,0.45,3,3,2,584,2
0.190908520742,1.32610694482,0.117411227506,0.0702846570754,0.401,0.45,1,1,2,585,2
0.236489711504,0.280956300428,0.185497373188,1.04736259112,0.349,0.45,3,3,2,586,2
1.11850258813,0.148960373512,0.132688557425,0.533282591667,0.33,0.45,0,0,2,587,2
0.135972229099,1.17802176722,0.204609706029,0.299548998728,0.359,0.45,1,1,2,588,2
0.0898424906259,0.051833210342,1.03886022441,0.119802664767,0.308,0.45,2,2,2,589,2
0.0990715472726,1.10539090743,0.103828439641,0.207256061622,0.377,0.45,1,1,2,590,2
1.07853656489,0.52531324163,0.200550505073,0.353656172283,0.342,0.45,0,0,2,591,2
0.111292001515,0.198124433217,1.168350044,0.115513293923,0.378,0.45,2,2,2,592,2
0.0972178621421,0.0333104540764,0.349571111916,1.27548071581,0.309,0.45,3,3,2,593,2
1.2289119508,0.323725229606,0.201504544191,0.222913228097,0.383,0.45,0,0,2,594,2
0.101477206262,0.0904220488005,0.440148381296,1.08071535941,0.392,0.45,3,3,2,595,2
0.222575155848,1.16715642404,0.0565750350546,0.348935445984,0.345,0.45,2,1,-1,596,2
1.20989762738,0.0749379982547,0.0239360914358,0.220638539326,0.512,0.45,0,0,1,597,2
0.0560025974439,1.45165762691,0.104110682403,0.237859756496,0.465,0.45,1,1,1,598,2
0.0552033391575,0.042009589406,1.02817829792,0.223632350156,0.345,0.45,2,2,2,599,2
0.0665752939993,1.11400952955,0.061408591136,0.157602258622,0.421,0.45,1,1,2,600,2
0.210412130972,0.0625049978942,0.14735464847,1.07592533904,0.404,0.45,3,3,2,601,2
0.220394673612,1.17078010282,0.0849863951489,0.39663435243,0.403,0.45,1,1,2,602,2
1.15026560767,0.0488774530928,0.114829084759,0.17271857574,0.441,0.45,0,0,2,603,2
0.102757216701,0.0989356384125,0.0667801831926,1.11550778666,0.364,0.45,3,3,2,604,2
0.146528748281,0.0833813087528,1.0769703309,0.160556129943,0.43,0.45,2,2,2,605,2
0.104484436812,0.0659074437816,0.0659831688903,1.05177131301,0.422,0.45,3,3,2,606,2
1.42995418305,0.0587777365676,0.0302536573378,0.233883641447,0.375,0.45,0,0,2,607,2
0.102143965859,0.117074020042,1.00637617139,0.12437988056,0.363,0.45,2,2,2,608,2
0.0806447929716,1.15091578793,0.0226979865944,0.161705027571,0.448,0.45,1,1,2,609,2
0.165155838061,0.0542088230596,0.153259000207,1.06300795753,0.376,0.45,3,3,2,610,2
0.143758584777,1.03424326567,0.0544232600687,0.208861773938,0.375,0.45,1,1,2,611,2
0.14852083567,0.0663717454915,1.10143819204,0.274570893994,0.408,0.45,2,2,2,612,2
1.27803698853,0.0392417059124,0.0796954554718,0.430116825755,0.376,0.45,0,0,2,613,2
0.0847326592438,1.05818714251,0.594446496141,0.104558950356,0.433,0.45,1,1,2,614,2
1.43791655725,0.254485168378,0.154070165344,0.393938974372,0.458,0.45,0,0,1,615,2
0.107466804898,0.106162935182,1.13828986905,0.171613302165,0.413,0.45,2,2,2,616,2
0.112917611765,0.0393863706944,0.254420271906,1.03383515607,0.378,0.45,3,3,2,617,2
0.162385664045,0.0893906972409,1.09713648066,0.16677201863,0.452,0.45,2,2,1,618,2
1.79954693139,0.372692909975,0.0465754330738,0.0572156748723,0.439,0.45,0,0,2,619,2
0.111947196292,0.0811775761831,0.0360303825779,1.12394248931,0.383,0.45,3,3,2,620,2
1.26521267489,0.10300780221,0.0608452145372,0.382344675784,0.365,0.45,0,0,2,621,2
0.107550631668,1.20942769916,0.0451505988551,0.353136397243,0.373,0.45,1,1,2,622,2
0.0847864140852,0.0427269098941,0.193764566233,1.0679513324,0.359,0.45,3,3,2,623,2
0.173103609148,1.15745624869,0.0213190354327,0.262645511752,0.431,0.45,1,1,2,624,2
0.0795799094917,0.0429906387476,1.07823904299,0.112764512443,0.426,0.45,2,2,2,625,2
1.08894691381,0.280964111836,0.0411541881397,0.155335507816,0.454,0.45,1,0,-1,626,2
1.20439317737,0.0920008741378,0.0103450688908,0.323043840029,0.503,0.45,0,0,1,627,2
0.093659715503,0.0610340519579,1.01506846521,0.107924056978,0.395,0.45,2,2,2,628,2
0.0928334257246,0.0358611777181,0.0767556540857,1.16911164964,0.349,0.45,3,3,2,629,2
0.0987434530735,0.0382557909301,1.33115936289,0.178315868113,0.408,0.45,2,2,2,630,2
1.02663984487,0.045832603929,0.0426185706751,0.0912643115253,0.358,0.45,0,0,2,631,2
0.0653305520639,0.0467642716605,1.02955874383,0.112607893278,0.38,0.45,3,2,-1,632,2
1.07113776813,0.0555689240845,0.022638522128,0.0419070945702,0.447,0.45,0,0,2,633,2
0.0843362481542,1.19754809881,0.0275189445998,0.112518998013,0.436,0.45,1,1,2,634,2
0.0744575523714,0.0274847765289,0.0320004741414,1.02652133742,0.356,0.45,3,3,2,635,2
1.51571428874,0.0361842359167,0.00958769694937,0.264688088408,0.403,0.45,1,0,-1,636,2
0.0411722101562,0.0718995050597,1.14796284718,0.130098826059,0.437,0.45,2,2,2,637,2
0.0492651118176,1.28884968244,0.0234738667241,0.153941247529,0.386,0.45,1,1,2,638,2
0.0543730084249,0.0584594626065,0.02343896343,1.07250952874,0.386,0.45,3,3,2,639,2
1.4869710284,0.0380299752463,0.0234376554915,0.262317468857,0.404,0.45,0,0,2,640,2
0.0460988233224,0.0390107680885,1.17477051521,0.18063569081,0.356,0.45,2,2,2,641,2
0.0503331522691,0.0383710782965,0.336892275081,1.0779411917,0.397,0.45,3,3,2,642,2
0.0461877165706,0.0305590323089,1.19404202788,0.0638739696708,0.428,0.45,2,2,2,643,2
1.50952555225,0.0373662879126,0.0256892337225,0.174622115907,0.381,0.45,0,0,2,644,2
0.0345380468187,0.0441436127852,0.17065933435,1.17640432643,0.441,0.45,3,3,2,645,2
0.0554618918475,1.03546403999,0.0153150455618,0.20244721794,0.383,0.45,1,1,2,646,2
1.06555367991,0.0318979044947,0.0295606701719,0.288896189757,0.346,0.45,0,0,2,647,2
0.078959103379,1.22706335597,-0.00198299546732,0.169680107269,0.419,0.45,1,1,2,648,2
0.0692125892333,0.0444970802436,1.11519338474,0.125521379511,0.39,0.45,2,2,2,649,2
0.0624364323419,1.15234097597,0.0552712956574,0.05175104711,0.417,0.45,1,1,2,650,2
0.143377234721,1.19234104082,0.0602601346896,0.504096022527,0.576,0.45,1,1,1,651,3
1.25802275573,0.0954986155986,0.0589053987624,0.41604604414,0.424,0.45,0,0,2,652,3
0.0836005897012,0.0721841688265,0.222135306909,1.09065440585,0.328,0.45,3,3,2,653,3
0.108645998029,0.112403013924,1.03968253468,0.673131352273,0.41,0.45,2,2,2,654,3
0.0765200332887,0.0523350976493,0.026107876105,1.01077450682,0.405,0.45,3,3,2,655,3
1.22072731853,0.0737772556987,0.019852649522,0.346701024101,0.369,0.45,0,0,2,656,3
0.0758197371928,0.0431245948463,1.03033941515,0.515629726322,0.384,0.45,2,2,2,657,3
0.0639985265314,1.0691717677,0.0424247342612,0.129849472026,0.409,0.45,1,1,2,658,3
0.116942087751,0.0816687954176,1.04717490859,0.126732339428,0.447,0.45,2,2,2,659,3
1.00856407326,0.0397504765114,0.0647989584247,0.304902507775,0.421,0.45,0,0,2,660,3
0.363916480043,1.01418686207,0.0923647780338,0.320154698518,0.488,0.45,1,1,1,661,3
0.0423979550661,0.0537412581061,0.0246489443639,1.10827072881,0.417,0.45,3,3,2,662,3
0.181962498979,1.08828727515,0.0325568034014,0.324223184273,0.427,0.45,1,1,2,663,3
1.11706730637,0.291859199933,0.0500656772169,0.410217050167,0.349,0.45,0,0,2,664,3
0.152304043995,0.145370379393,0.104221271471,1.12947050322,0.323,0.45,3,3,2,665,3
0.0833144538442,0.0896854493457,1.03680476711,0.619906024319,0.463,0.45,2,2,1,666,3
1.02163185644,0.192506141332,0.0265434218357,0.328064380398,0.556,0.45,0,0,1,667,3
0.0589452500677,0.0383367355574,1.01633473283,0.309018152059,0.401,0.45,2,2,2,668,3
0.0681194032197,0.0389638793721,0.111854068152,1.13816012075,0.317,0.45,3,3,2,669,3
1.05180581561,0.0390525602042,0.0710114073714,0.382401310129,0.356,0.45,0,0,2,670,3
0.156209450291,1.00561235117,0.0246293997225,0.390321426753,0.412,0.45,1,1,2,671,3
0.10093822637,0.0761736855697,0.0244608282744,1.00031758652,0.304,0.45,3,3,2,672,3
0.118898569612,1.0786396812,0.0308229595118,0.300670614628,0.479,0.45,1,1,1,673,3
0.0656753216383,0.131647765898,1.10495703317,0.288824066186,0.498,0.45,2,2,1,674,3
0.0692725356944,1.12466027361,0.0293804698927,0.222879007013,0.484,0.45,1,1,1,675,3
0.0826136767379,0.0494837985416,1.01262685047,0.153082563544,0.418,0.45,2,2,2,676,3
1.03360028882,0.0393121178774,0.0444128957409,0.63124844863,0.419,0.45,0,0,2,677,3
0.0891932272616,0.0466026121067,0.017061383642,1.02877255271,0.371,0.45,3,3,2,678,3
1.03180105129,0.0468418161145,0.0186964957277,0.358869586045,0.349,0.45,0,0,2,679,3
0.0606132090436,0.061763191868,1.03550890799,0.406685712453,0.382,0.45,2,2,2,680,3
0.0816139048539,0.0429564148027,0.358965038434,1.05809886775,0.387,0.45,3,3,2,681,3
0.101821548474,1.16195273112,0.0196270982446,0.20720275985,0.419,0.45,1,1,2,682,3
0.0816183504995,0.0804191025066,0.00185544735799,1.07832509694,0.371,0.45,3,3,2,683,3
0.0886570089096,0.108551736551,1.06214417339,0.266608033168,0.449,0.45,2,2,2,684,3
0.079262312096,1.19063253988,0.0228462436075,0.163092860135,0.38,0.45,1,1,2,685,3
1.0485308369,0.0837634848028,0.0158560836276,0.298428523952,0.348,0.45,0,0,2,686,3
0.0874009926323,1.23376013312,0.0156450199939,0.0988336134876,0.429,0.45,1,1,2,687,3
0.0657255263346,0.044329178976,0.0156279327737,1.08477166759,0.348,0.45,3,3,2,688,3
1.07207309571,0.0338530342565,0.0122688844927,0.261959542307,0.362,0.45,0,0,2,689,3
0.0642700564536,0.0245125493433,1.06231872673,0.205225462918,0.34,0.45,2,2,2,690,3
1.28151034736,0.392598640415,0.021318754385,0.26932684836,0.433,0.45,0,0,2,691,3
0.0833136993274,0.0778388836265,0.022159787925,1.07562626062,0.375,0.45,3,3,2,692,3
0.0883329866404,0.0488653357783,1.08034163304,0.163585797089,0.39,0.45,2,2,2,693,3
0.0875036068107,0.0474952439316,0.0237593404122,1.06818864255,0.382,0.45,3,3,2,694,3
0.0886874124049,1.16656312652,0.00832706538549,0.559933287811,0.514,0.45,1,1,1,695,3
0.091146917412,0.0753631308019,1.10424704399,0.163281726409,0.465,0.45,2,2,1,696,3
0.549290175156,1.0780102117,7.15734259883e-05,0.106003114125,0.478,0.45,1,1,1,697,3
1.08265629068,0.0939498524707,0.0129146891003,0.104307075956,0.361,0.45,0,0,2,698,3
1.24257655516,0.220552157974,0.332949873086,0.105049401561,0.426,0.45,1,0,-1,699,3
1.32670090537,0.241894650368,0.0189549980132,0.110562651067,0.429,0.45,0,0,2,700,3
0.0797275963023,0.0331817207765,0.0560989828215,0.0441767574188,0.7,0.45,3,-1,0,702,3
0.0782779527666,0.0458364927052,1.15497265395,0.0846899181042,0.446,0.45,2,2,2,702,3
0.0668722505862,0.0341180536824,-0.00636766435017,0.348263933997,0.7,0.45,3,-1,0,704,3
0.465365269946,0.282265780345,0.284728876707,0.722754817801,0.7,0.45,0,-1,0,705,3
0.169926890766,0.142028354374,1.12882461508,0.131252499629,0.454,0.45,2,2,1,705,3
1.23369156423,0.0464725045978,0.0351999063659,0.0922619439825,0.359,0.45,0,0,2,706,3
1.02307320855,0.201992246196,0.112388513749,0.298701176093,0.337,0.45,1,0,-1,707,3
0.0434871137186,0.17138848086,1.02582433553,0.595202105585,0.415,0.45,2,2,2,708,3
0.04021463358,1.08910302716,0.0312593809468,0.0278673744201,0.361,0.45,1,1,2,709,3
0.153689380871,0.0763149079969,0.319332783493,1.39510657497,0.348,0.45,3,3,2,710,3
0.131871819151,0.308045266171,1.09161359427,0.354728217281,0.408,0.45,1,2,-1,711,3
0.0935755207887,0.210986850799,0.0136637162707,1.01449127344,0.311,0.45,3,3,2,712,3
1.10695804609,0.570347908228,0.00832475308941,0.491644357236,0.304,0.45,0,0,2,713,3
0.0738313101317,0.130023723619,1.21720362698,0.465778783122,0.332,0.45,2,2,2,714,3
1.48545399316,0.0556541597868,0.0311062512199,0.315134095382,0.395,0.45,0,0,2,715,3
0.0616681116997,0.0432289321592,0.0312419635373,1.00088122185,0.239,0.45,3,3,2,716,3
0.0634733260288,0.350243888971,0.927168096989,1.00591030192,0.347,0.45,2,3,-1,717,3
0.0621156559235,1.13847210022,0.0199954365303,0.0977990623969,0.292,0.45,1,1,2,718,3
1.27072662985,0.301228105342,0.11393639861,0.399900215556,0.315,0.45,0,0,2,719,3
0.0752029042937,1.13055905371,0.101278806739,0.344943775812,0.303,0.45,1,1,2,720,3
0.0730085525606,0.0444974204019,1.22673624133,0.322347494453,0.281,0.45,2,2,2,721,3
0.0668396702428,0.0312681015586,0.0234945862089,1.1538192255,0.287,0.45,3,3,2,722,3
0.067633382936,1.19181170079,0.0626193156636,0.0930330510357,0.398,0.45,1,1,2,723,3
0.0694186378504,0.0565746228598,1.01729030695,0.267705261457,0.369,0.45,3,2,-1,724,3
0.0639524784937,0.0680377775394,1.5029504167,0.268231620583,0.39,0.45,2,2,2,725,3
1.24668281727,0.122316021592,0.0312541300814,0.102291298803,0.393,0.45,0,0,2,726,3
0.103427160557,0.0636280527933,0.20523845081,1.170979473,0.384,0.45,3,3,2,727,3
0.108178221437,1.11353560728,0.0349556956701,0.252372533824,0.409,0.45,0,1,-1,728,3
0.0433959191762,0.0484786501527,1.21048942169,0.12525312957,0.413,0.45,2,2,2,729,3
0.049197645816,0.034928556387,0.0312519144173,1.00681080354,0.421,0.45,3,3,2,730,3
0.0568927575036,1.32310961204,0.0316602637105,0.0914168282788,0.416,0.45,1,1,2,731,3
1.4974724757,0.0495079517644,0.04539501755,-0.068327221166,0.39,0.45,0,0,2,732,3
0.0575572585797,1.25418245685,0.0297528986472,0.078319830269,0.467,0.45,1,1,1,733,3
0.0678560321079,0.0234602329954,1.27130863088,0.058768005551,0.411,0.45,2,2,2,734,3
0.0112433316502,3.33881598786,0.0294199140165,0.0554144976724,0.46,0.45,1,1,1,735,3
0.0837153563191,0.0662785987368,1.00988721388,0.0304026702784,0.506,0.45,2,2,1,736,3
0.0744828646092,0.0341467598341,0.0156260814937,1.56635433876,0.444,0.45,3,3,2,737,3
1.63885089409,0.058552411406,0.0156250290865,0.0239407485733,0.392,0.45,0,0,2,738,3
0.0493106302012,0.0522584915291,0.0836951516255,1.41962229837,0.364,0.45,3,3,2,739,3
0.0409115513328,0.0314911352525,1.05514894849,-0.0813037732755,0.326,0.45,2,2,2,740,3
2.00620060331,0.04604088042,0.0234378517602,0.031078086127,0.381,0.45,0,0,2,741,3
0.0470344399686,1.29219724181,0.0255689191387,0.0322908220998,0.314,0.45,1,1,2,742,3
0.0554240048503,0.0312569449514,0.388469941747,1.11435576273,0.406,0.45,3,3,2,743,3
0.0504157289925,1.00097593406,0.0279145679187,0.0882290588384,0.388,0.45,1,1,2,744,3
1.80986361437,0.028652120194,0.0309037030823,0.0507357989703,0.273,0.45,0,0,2,745,3
0.0422563978135,0.0413849449728,1.09251489959,0.127546938938,0.342,0.45,2,2,2,746,3
0.0742569070333,1.20675938413,0.0075791431121,0.0243248511531,0.416,0.45,1,1,2,747,3
0.0614651925615,0.0390632555033,1.04092969928,0.0450999256052,0.389,0.45,2,2,2,748,3
0.0552797778704,0.0390625381018,0.0343711543408,1.11023476227,0.388,0.45,3,3,2,749,3
1.34929486158,0.0353733707389,0.034265917204,0.0545069534997,0.412,0.45,0,0,2,750,3
0.0469670415227,0.0367679572796,1.15449931273,0.0995041075584,0.394,0.45,2,2,2,751,3
2.9362796346,0.0310655385851,0.0156253338564,0.0202075337639,0.431,0.45,0,0,2,752,3
0.0692630641336,0.0344516315368,0.0152604109457,1.01242058895,0.404,0.45,3,3,2,753,3
0.0517224336238,1.21094641087,0.0393642191991,0.0639363264472,0.379,0.45,1,1,2,754,3
0.0573060214755,0.0288324620136,0.623629532692,1.04445124439,0.466,0.45,3,3,1,755,3
0.0555393112802,0.0266921055689,1.08187258683,0.042285675367,0.432,0.45,2,2,2,756,3
0.0386874750339,1.89031719527,0.355117947386,0.0444787385941,0.435,0.45,1,1,2,757,3
1.27982121947,0.0400646536044,0.031944826675,0.0916733187335,0.347,0.45,0,0,2,758,3
0.200186512677,2.70036852099,0.354300273085,-0.0547484821007,0.375,0.45,1,1,2,759,3
0.070314472171,0.0468750338479,1.01137772148,0.0162089488275,0.304,0.45,3,2,-1,760,3
0.181851080121,2.00696591017,0.0064185729446,0.0466441646555,0.316,0.45,0,1,-1,761,3
0.0451145114781,0.048379111373,1.01730001924,0.373451883964,0.431,0.45,2,2,2,762,3
1.86401524013,0.0288656933496,0.00271197340202,0.00102053343305,0.396,0.45,0,0,2,763,3
0.0840520621432,0.036991041625,0.419406005919,1.19615544175,0.399,0.45,3,3,2,764,3
0.0923366908455,0.0548989804167,1.10265389449,0.0572458451898,0.329,0.45,2,2,2,765,3
0.0742798900186,1.29986744769,0.0159974338751,0.0111685046427,0.304,0.45,1,1,2,766,3
3.36763509755,0.0160165118876,-0.00171111490183,0.0249900734243,0.33,0.45,0,0,2,767,3
0.209445687932,1.5559855359,-0.064043205885,-0.128628511807,0.415,0.45,1,1,2,768,3
0.0771639607308,0.0279734214622,1.08129159873,0.0758992256514,0.301,0.45,2,2,2,769,3
0.0651190887312,0.030647011433,0.140090579709,1.10940667192,0.347,0.45,3,3,2,770,3
0.0739187846429,1.17066333432,-0.00474628427238,-0.00519764445204,0.308,0.45,1,1,2,771,3
0.0667099653656,0.0374744512655,1.10443055183,0.051957328452,0.426,0.45,2,2,2,772,3
2.98487880912,0.0441657756206,0.0156425285101,0.0177002361391,0.404,0.45,0,0,2,773,3
0.0432232713508,0.0322426278944,0.00696744106331,1.06068982545,0.425,0.45,3,3,2,774,3
1.00292788223,0.0997731465738,-0.0348043220328,-0.133495855777,0.477,0.45,0,0,1,775,3
0.0578536694085,0.0316305629036,1.05960048857,0.103469346839,0.309,0.45,2,2,2,776,3
0.0863133432577,0.0383103430613,6.12659071497e-06,1.17785743504,0.295,0.45,3,3,2,777,3
0.0452484866952,1.14917087557,-0.0186237065528,-0.00768684977078,0.306,0.45,1,1,2,778,3
0.0550018974968,0.0239929733598,0.0535156201219,1.22962728253,0.394,0.45,3,3,2,779,3
0.0535945572675,0.0262413299562,1.02891860697,0.0415540466297,0.355,0.45,2,2,2,780,3
0.0494389750314,1.2654052827,0.00598311469356,0.0299056443347,0.392,0.45,1,1,2,781,3
1.52358913998,0.031252725212,-0.00647611812952,0.0171584286295,0.391,0.45,0,0,2,782,3
-0.00417147049058,1.10817207446,-0.000408268293882,0.0666639398266,0.437,0.45,1,1,2,783,3
0.0279782175434,0.0261608714851,-0.011550927597,1.1808870773,0.398,0.45,3,3,2,784,3
2.56110415266,0.0493213456774,0.0044888246583,-0.0803196124536,0.438,0.45,0,0,2,785,3
0.02860606931,0.0283478181203,1.09003990185,0.0586472307957,0.347,0.45,2,2,2,786,3
0.0463906140329,0.039236233026,0.0113136319348,1.18961505819,0.306,0.45,3,3,2,787,3
0.0723107956975,0.045155810763,1.00066582396,-0.116832463403,0.488,0.45,2,2,1,788,3
1.04345591419,0.0371917318596,0.017425460729,0.0054686698408,0.399,0.45,0,0,2,789,3
0.0319263352659,0.0406057670748,1.22425159996,0.0567337771674,0.334,0.45,3,2,-1,790,3
0.038640061326,0.0461980191212,1.05625742291,0.0118651800328,0.339,0.45,1,2,-1,791,3
0.0644534624887,0.0404816126104,1.16726078771,-0.0851859192146,0.4,0.45,2,2,2,792,3
0.0404230560082,2.54165794681,0.0327549366724,-0.0100929732568,0.474,0.45,1,1,1,793,3
1.04408951389,0.0387373504782,0.0141319012226,0.00179551328952,0.405,0.45,0,0,2,794,3
0.035219008624,1.18644633716,0.111205857721,0.239924716157,0.459,0.45,1,1,1,795,3
0.0678241456289,0.0343826604723,0.0112593757878,1.05736612198,0.375,0.45,3,3,2,796,3
1.47802152566,0.0301067696928,0.00474652366286,0.031681640573,0.424,0.45,0,0,2,797,3
0.0670764255464,0.0276288492687,1.1772471279,-0.0470074156076,0.323,0.45,2,2,2,798,3
1.09816043124,0.0309590879732,-0.0187366631204,0.0247832274625,0.417,0.45,0,0,2,799,3
0.0929604362896,0.0300918235168,-0.00874421790633,1.01321307268,0.463,0.45,3,3,1,800,3
0.096475783879,0.0277331694348,1.16264160876,0.0387154314823,0.357,0.45,2,2,2,801,3
0.073502866066,1.12220514851,0.0156623011738,0.0142096008582,0.351,0.45,1,1,2,802,3
1.18773556148,0.0401887451059,0.00561993282106,-0.0457094266727,0.306,0.45,0,0,2,803,3
0.101956598202,1.11640289979,0.000322374935019,0.00287349626162,0.342,0.45,1,1,2,804,3
0.0721504081512,0.0351136720489,1.1048421568,-0.00446392579552,0.341,0.45,2,2,2,805,3
0.0643013242309,0.0323112609675,-0.000889092271776,0.033298974539,0.7,0.45,3,-1,0,807,3
0.0681382220358,1.28825137561,-0.000237659423272,0.0189104815828,0.424,0.45,1,1,2,807,3
1.14283056486,0.187197780312,0.0246736787159,0.0172465161624,0.396,0.45,0,0,2,808,3
0.0592880469149,0.0596824594564,1.31384447553,0.0438196674184,0.322,0.45,2,2,2,809,3
0.0398244081965,0.0449271341258,0.0156297636237,1.30802814853,0.26,0.45,3,3,2,810,3
0.0978744335144,0.495067251446,1.02606524683,0.0112441463178,0.418,0.45,2,2,2,811,3
1.75499983423,0.0412177694553,0.00781265873415,-0.00107712540894,0.407,0.45,0,0,2,812,3
0.0279744682968,0.0443741851048,-0.00778031162112,1.04709593985,0.425,0.45,3,3,2,813,3
1.08504227004,0.0406037569319,-0.00780909295825,-0.0075008892219,0.443,0.45,0,0,2,814,3
0.0501892451758,1.36407949524,0.24904393963,0.0287866086632,0.495,0.45,1,1,1,815,3
0.0582990297229,0.0339514894066,1.18147528678,-0.0581892311247,0.424,0.45,2,2,2,816,3
0.0936309277234,1.30493029586,-0.0244606452596,-0.0287614400892,0.461,0.45,1,1,1,817,3
0.0519020334997,0.0546875082256,0.00503500065757,1.17200652102,0.44,0.45,3,3,2,818,3
0.0568350464565,1.06570580201,0.00162114200019,0.00891917298549,0.443,0.45,1,1,2,819,3
0.0498938623923,0.0468750218616,1.92708215547e-05,1.42660108732,0.46,0.45,3,3,1,820,3
0.0471056826845,0.0409589916318,1.22137704971,0.080032443689,0.445,0.45,2,2,2,821,3
1.92066156384,0.0541656741999,0.0196561320509,0.0326799028172,0.419,0.45,0,0,2,822,3
0.0229362067998,0.0405135651282,0.176531784021,1.31675075549,0.464,0.45,3,3,1,823,3
1.41069795035,0.0345681998622,0.0183743591674,0.0306164986572,0.461,0.45,0,0,1,824,3
0.0236991032879,0.0400172282925,1.24300652177,0.00858522704003,0.331,0.45,2,2,2,825,3
0.0568404556786,0.0533447995613,0.00781255601941,1.0298590495,0.38,0.45,3,3,2,826,3
0.0539412932297,1.05057748966,-0.00361905698325,-0.0172902295192,0.324,0.45,1,1,2,827,3
0.0452932551325,0.0332466697834,1.46000116887,-0.025214488501,0.26,0.45,2,2,2,828,3
0.0609958451609,1.7495767021,0.00610654946041,-0.0200220994787,0.418,0.45,1,1,2,829,3
3.07489011967,0.0230533764616,-0.00724181217241,0.0173994123228,0.32,0.45,0,0,2,830,3
-0.0553602048133,3.5751074668,-0.0352038903165,-0.172834693803,0.447,0.45,1,1,2,831,3
0.0587364686942,0.043296947994,1.01634899094,0.0883535033735,0.334,0.45,2,2,2,832,3
0.0494250361506,0.0391565466927,3.09742402427e-05,1.01837585462,0.294,0.45,3,3,2,833,3
1.45349415954,0.0379094250579,9.85807848464e-07,-0.00610584367984,0.429,0.45,0,0,2,834,3
0.0155185613343,0.0342778107187,-0.0115661833886,1.07686016758,0.359,0.45,3,3,2,835,3
0.0360211390867,0.325040041634,1.17833165299,0.158090595103,0.394,0.45,2,2,2,836,3
1.27413511631,0.11032858775,-0.00772238240375,0.0985447963143,0.427,0.45,0,0,2,837,3
0.00566584019275,1.39931514745,0.128822320027,0.0197157908528,0.456,0.45,1,1,1,838,3
0.0405100592948,0.0312503644923,0.00489960586404,1.39147643989,0.386,0.45,3,3,2,839,3
0.0799692365958,1.4807995136,-0.00720596892939,0.0349362423622,0.403,0.45,1,1,2,840,3
4.45936514847,0.00968770680775,-0.00517611794214,0.0380774048581,0.36,0.45,0,0,2,841,3
0.0609108449551,0.0322846823191,1.29152632735,-0.0178366550056,0.323,0.45,2,2,2,842,3
0.0612673109435,1.21407851175,0.00930900381534,0.0182040848046,0.409,0.45,1,1,2,843,3
0.0613640759563,0.0361808686842,-0.00670794235868,1.17593439949,0.413,0.45,3,3,2,844,3
0.0967395722731,0.0820137441053,1.68432578345,0.0513468796147,0.425,0.45,2,2,2,845,3
1.11707980206,0.0719504516358,0.0253806759118,-0.0230689545638,0.391,0.45,0,0,2,846,3
0.027801359011,0.0316721243816,0.00107431766522,1.12560490932,0.445,0.45,3,3,2,847,3
1.12394254621,0.0234060121906,-0.00313512858931,-0.021944956994,0.416,0.45,0,0,2,848,3
0.0553303169904,0.0370393067532,1.19820261361,-0.0938266519043,0.319,0.45,2,2,2,849,3
0.0576292284612,0.0257179235091,0.00364617581873,1.22462462308,0.359,0.45,3,3,2,850,3
0.063561718447,1.33771211694,0.00472614946357,0.0429917660174,0.344,0.45,1,1,2,851,3
1.55629435124,0.0495418035406,0.00745827387647,0.0466540331262,0.341,0.45,0,0,2,852,3
-0.00668559676743,1.27401316729,0.0109432191074,0.0329544715146,0.433,0.45,1,1,2,853,3
0.0556475022879,1.14415217522,0.00699501946698,0.025320109282,0.43,0.45,2,1,-1,854,3
0.048398690794,1.41316453502,0.00771158036301,0.0406502837145,0.404,0.45,1,1,2,855,3
0.0621025284736,0.029100152939,1.23740579521,0.00302275909936,0.426,0.45,2,2,2,856,3
1.45631161056,0.0224798196918,0.028824482703,0.0748179518778,0.422,0.45,0,0,2,857,3
0.0800882708783,0.0368563496612,0.00301399414876,1.33911968047,0.369,0.45,3,3,2,858,3
1.0829887706,0.0347067526578,0.00538106746474,-0.0267346087749,0.357,0.45,0,0,2,859,3
0.0700908431731,0.0458545790026,1.33411924477,0.0716713350252,0.289,0.45,2,2,2,860,3
0.0430284928172,0.0410859214114,0.0156268723574,1.43630560748,0.348,0.45,3,3,2,861,3
0.0374463730712,1.24614525668,0.0145316750229,-0.00925180445601,0.376,0.45,1,1,2,862,3
0.0392306022181,0.024398203434,0.017621097578,1.24797926708,0.382,0.45,3,3,2,863,3
0.0430226301925,0.0253614338478,1.03717663049,0.054360042962,0.452,0.45,2,2,1,864,3
-0.0190921612228,2.54142717419,0.0474752668586,0.0473411497461,0.459,0.45,1,1,1,865,3
2.56801024739,0.0616993680758,0.0101478832735,0.0343228267557,0.357,0.45,0,0,2,866,3
-0.0966083771024,1.34338305929,0.154838863052,-0.182763145387,0.441,0.45,1,1,2,867,3
3.00474692857,0.037161204649,-0.0028570191187,0.0404918979325,0.429,0.45,0,0,2,868,4
0.0683388669731,0.0319741690662,1.11108023559,0.0752218822938,0.318,0.45,3,2,-1,869,4
0.116345609271,1.06082305764,-0.0153453143947,-0.0321389702196,0.396,0.45,1,1,2,870,4
0.0466888506409,0.0133186120009,1.26219152213,-0.162143479418,0.337,0.45,2,2,2,871,4
-0.034262287234,2.9379590825,-0.00917448986713,-0.0127579712731,0.381,0.45,1,1,2,872,4
0.0477101519469,0.025009633112,-0.00443855768522,1.09301031141,0.445,0.45,3,3,2,873,4
0.0582991334708,1.0062779058,-0.00147642321826,0.030892617362,0.47,0.45,2,1,-1,874,4
0.0498895836565,0.0244332563495,0.00231869331171,1.17159753083,0.491,0.45,3,3,1,875,4
1.37788533776,0.0829039758706,-0.000836055193059,-0.022147418717,0.479,0.45,0,0,1,876,4
-0.0206891967474,1.05305000996,0.10935502934,0.0349559392113,0.456,0.45,1,1,1,877,4
1.82695218916,0.116066829925,0.0469546313051,0.0101741121309,0.463,0.45,0,0,1,878,4
0.0176694642377,0.0319908143029,1.16909947694,-0.00871581987434,0.378,0.45,2,2,2,879,4
2.32059784787,-0.000897784747097,-0.0113461054321,-0.0089849912213,0.492,0.45,0,0,1,880,4
0.0296603723471,0.0206237690479,-0.00144324867348,1.24491691542,0.43,0.45,3,3,2,881,4
0.198651937388,1.76749313316,0.0131400928851,0.0388525018723,0.377,0.45,1,1,2,882,4
0.0833288922808,0.0111806952642,1.31149067716,-0.154227953624,0.391,0.45,2,2,2,883,4
0.0523639214911,0.02459465942,0.0154581836498,1.23229472968,0.46,0.45,3,3,1,884,4
-0.0359090756463,0.0104464294957,1.17729996716,0.215992496238,0.523,0.45,2,2,1,885,4
0.150388202507,1.64638330457,0.00954443343451,0.0130572067644,0.454,0.45,1,1,1,886,4
1.87033962564,0.0365051607946,0.0132453550739,0.0151879836127,0.392,0.45,0,0,2,887,4
0.0734175883791,0.0668823265539,1.08171719632,0.0136197771115,0.289,0.45,2,2,2,888,4
1.85367632932,0.0246770465188,0.0293196078976,0.127663976695,0.488,0.45,0,0,1,889,4
0.0542882286203,1.03983271365,-0.00677218068149,-0.0415816744141,0.451,0.45,1,1,1,890,4
0.0358543660805,0.0390835851294,0.00218653218469,1.19496817596,0.389,0.45,3,3,2,891,4
1.58743969905,0.0390641067281,0.00248557613294,0.0407608146942,0.355,0.45,0,0,2,892,4
0.0185572329414,0.0412179983163,-0.00837904238605,1.08528632236,0.364,0.45,2,3,-1,893,4
0.0800357384833,1.2798753389,-0.00961258520485,0.0038115425481,0.412,0.45,1,1,2,894,4
0.048875078063,0.0217815063058,-0.00406796932335,1.32149073031,0.367,0.45,3,3,2,895,4
0.0340446677333,0.0206083418846,1.24507199308,-0.0217799538344,0.294,0.45,2,2,2,896,4
0.0532580501351,0.0374238858043,0.0147648927325,1.33302067686,0.395,0.45,3,3,2,897,4
0.0519834692366,1.0868888021,0.0555227455973,0.374145372226,0.416,0.45,1,1,2,898,4
0.0576468590576,0.0217420462172,1.10095235289,-0.107453316834,0.365,0.45,2,2,2,899,4
1.25156284371,0.0272276367351,-0.0220673466622,0.07822241677,0.418,0.45,0,0,2,900,4
0.0128498673576,0.0319952325057,-0.0180671195442,1.28589622437,0.398,0.45,3,3,2,901,4
1.26107757938,0.0313780299621,-0.0148851869559,0.0375428801399,0.404,0.45,0,0,2,902,4
0.277348104932,2.09432920456,-0.00243199106895,0.0311967421318,0.464,0.45,1,1,1,903,4
4.35298080356,0.00591971091996,-0.0124927410172,0.00492276226073,0.449000000001,0.45,0,0,2,904,4
0.00158377918707,0.0151727089515,1.09721991629,0.261956763647,0.371000000001,0.45,2,2,2,905,4
0.057077329794,0.0259849459328,-0.0027995856107,1.00245943581,0.317000000001,0.45,3,3,2,906,4
2.37323482098,0.0662584516076,-0.00740056327724,0.0432669778221,0.301000000001,0.45,1,0,-1,907,4
0.0501782713561,0.0221504987144,1.24058610767,0.31594768191,0.400000000001,0.45,2,2,2,908,4
0.198662027939,1.43225330317,0.0153354504262,0.0131145349518,0.305000000001,0.45,1,1,2,909,4
0.0454913884772,0.0180056932234,0.0126840163882,1.10372400107,0.447000000001,0.45,3,3,2,910,4
0.0326340652164,0.0463054653741,1.10018498311,0.163849492603,0.453000000001,0.45,2,2,1,911,4
1.37452240615,0.0840242758963,0.00344111219675,0.0334604522868,0.516000000001,0.45,0,0,1,912,4
0.00437557129339,0.0257739418046,-0.00611876573704,1.07467624992,0.463000000001,0.45,3,3,1,913,4
1.38415231282,0.0251947964071,-0.0049792709746,0.0135216088106,0.457000000001,0.45,0,0,1,914,4
0.0468111698887,1.0444328261,-0.0191921901233,0.0136862632763,0.434000000001,0.45,1,1,2,915,4
2.5831817704,0.0213722621238,-0.0193353000718,0.0220008777624,0.438000000001,0.45,0,0,2,916,4
2.07828680402,0.0229729949769,-0.00963887874295,0.021403401184,0.412000000001,0.45,1,0,-1,917,4
0.0501706613214,0.0337118900485,1.12480873035,0.0213216510909,0.570000000001,0.45,2,2,1,918,4
0.0344772433269,0.0380723312301,-0.00755880735514,1.08467411326,0.391000000001,0.45,3,3,2,919,4
0.0326336780495,0.0356420460227,1.28143773082,-0.118891419437,0.392000000001,0.45,2,2,2,920,4
0.216864455405,1.48027304263,-0.0569733918354,-0.0740132211158,0.359000000001,0.45,1,1,2,921,4
0.0600745135084,0.012207747518,1.0087623345,-0.121927773739,0.413000000001,0.45,3,2,-1,922,4
1.0739537972,0.0267177946829,0.0270407907001,-0.017035776175,0.533000000001,0.45,0,0,1,923,4
0.0123591754936,0.0373423684039,-0.00387275939894,1.07992191275,0.431000000001,0.45,3,3,2,924,4
-0.0148330856409,1.10592711609,-0.0147994794254,0.0648568478616,0.403000000001,0.45,1,1,2,925,4
1.24816514611,0.0392942419938,-0.00104254050958,0.0529520012466,0.372000000001,0.45,0,0,2,926,4
0.0319863618334,0.0135389544685,2.80830523668,-0.13463048766,0.368000000001,0.45,2,2,2,927,4
1.61543098081,0.0279738565342,-0.00173073681381,0.0277657573164,0.401000000001,0.45,0,0,2,928,4
0.105415380165,1.15710783275,-0.0309440730461,-0.135410031657,0.507000000001,0.45,1,1,1,929,4
0.0892216369071,0.024251125105,0.0825122803659,1.06147349965,0.505000000001,0.45,3,3,1,930,4
0.0654161705157,0.0868058580641,1.02098819948,-0.0352172830686,0.519000000001,0.45,2,2,1,931,4
0.0580270974898,0.0346999944201,-0.0076488703745,1.01998526847,0.616000000001,0.45,3,3,1,932,4
0.0770720157458,1.03171185178,0.0158261494735,0.119116122937,0.459000000001,0.45,1,1,1,933,4
0.0674321239902,0.0178406030454,1.21313345676,0.00284668428257,0.410000000001,0.45,2,2,2,934,4
2.24184320531,0.0354095523999,0.00804669874012,0.0205533010443,0.367000000001,0.45,0,0,2,935,4
0.0758502745765,0.0122637700285,1.05575008364,-0.0990229600838,0.377000000001,0.45,2,2,2,936,4
0.0547635348766,1.01530984651,0.00473236240675,0.0107583210169,0.432000000001,0.45,1,1,2,937,4
1.02403409506,0.0246656140224,-0.013711471066,-0.0139961477182,0.409000000001,0.45,0,0,2,938,4
0.0635336639074,0.0233132020077,1.02384362545,-0.0114410276585,0.333000000001,0.45,3,2,-1,939,4
2.46391417188,0.0234278879251,-0.00779318609474,0.0145322908858,0.443000000001,0.45,0,0,2,940,4
0.0547468073138,0.0208406878149,1.03848250301,0.0591023071111,0.326000000001,0.45,3,2,-1,941,4
0.0571471939947,0.00966680993952,1.05538933212,-0.00474067016075,0.443000000001,0.45,2,2,2,942,4
0.0537592670451,1.21536744013,0.192848559483,0.912248707972,0.459000000001,0.45,1,1,1,943,4
0.178244692136,0.0625347373516,1.2930475994,0.0253863300608,0.425000000001,0.45,2,2,2,944,4
0.0516589017713,0.031366170848,-0.0126800979378,0.0730515764948,0.7,0.45,3,-1,0,946,4
0.092951566705,1.01699458355,0.0078357718848,0.058131635692,0.393000000001,0.45,1,1,2,946,4
0.0410392514463,0.0139101349831,1.08489011205,0.0304578355843,0.370000000001,0.45,3,2,-1,947,4
1.00247624638,0.0285870225493,0.00643929846443,-0.0114683679894,0.542000000001,0.45,0,0,1,948,4
0.0167118662902,0.00647898849171,1.13599699568,0.114513413343,0.342000000001,0.45,2,2,2,949,4
1.09983491757,0.0440446752511,-0.00854113697835,-0.0809595941045,0.511000000001,0.45,0,0,1,950,4
0.360028422591,1.73627944808,-0.0341701868324,-0.184622772959,0.479000000001,0.45,1,1,1,951,4
0.257606780067,0.0147337574241,-0.00576533488569,-0.00538765062392,0.7,0.45,0,-1,0,953,4
0.0783650161872,0.0155313880155,-0.00416820674528,0.134655025004,0.7,0.45,3,-1,0,954,4
0.0793732510854,1.12310392789,-0.00123341025897,0.0511679723837,0.450000000001,0.45,1,1,1,954,4
0.0774396983777,0.0322786351428,1.16615008299,0.0209038651179,0.348000000001,0.45,2,2,2,955,4
0.0605236863072,1.13325423182,0.0252793730308,0.118926371333,0.463000000001,0.45,1,1,1,956,4
0.0537560341299,0.0337386479162,0.00399801332341,1.00744388329,0.472000000001,0.45,3,3,1,957,4
0.0835013526551,0.0417879483984,1.08446915236,0.196426817899,0.473000000001,0.45,2,2,1,958,4
2.81414200406,0.0306188558443,0.0156602609088,0.0580508064068,0.419000000001,0.45,0,0,2,959,4
0.0551688856483,0.0300354427205,1.12162170974,0.0719270357028,0.413000000001,0.45,2,2,2,960,4
0.0527857695158,0.0300180708423,0.0069640426124,1.34497002587,0.391000000001,0.45,3,3,2,961,4
1.12469846654,0.0558684857966,0.00533116999039,-0.0976586732224,0.480000000001,0.45,0,0,1,962,4
0.0393795371729,1.16939050232,0.00162908736126,0.0302782710562,0.466000000001,0.45,1,1,1,963,4
1.39872264195,0.00439377747049,-0.0273093875283,0.0190418644379,0.427000000001,0.45,0,0,2,964,4
0.0718946649108,0.0389745602094,1.03609644533,-0.134763788407,0.403000000001,0.45,2,2,2,965,4
0.0488528600233,1.39611142758,0.0198118825092,-0.00088001545981,0.451000000001,0.45,1,1,1,966,4
0.0424301088109,0.00782111849425,-0.0134673954868,1.12453889457,0.441000000001,0.45,3,3,2,967,4
0.0670001925166,0.0661190193321,1.39843609125,-0.357083413667,0.480000000001,0.45,2,2,1,968,4
0.0441194392891,0.0259949139354,-0.0130383535957,0.85080943499,0.7,0.45,3,-1,0,970,4
0.0597625910612,1.02649775784,0.302373466144,0.056682040195,0.557000000001,0.45,1,1,1,970,4
1.72301968693,0.0219496004149,0.0265185580727,-0.0366457162814,0.403000000001,0.45,0,0,2,971,4
-0.0410427884187,1.9299480507,0.00159117990904,0.0327521863165,0.427000000001,0.45,1,1,2,972,4
0.0368334608166,0.0259003482814,1.22854179792,-0.00692517304212,0.317000000001,0.45,2,2,2,973,4
1.82619348255,0.0328381982207,0.0156263223817,0.0249322328373,0.452000000001,0.45,0,0,1,974,4
0.0446160931159,0.0312678739959,0.0675089867865,1.05474699308,0.515000000001,0.45,3,3,1,975,4
1.24107321344,0.0280995917254,0.100655770462,-0.136425950759,0.625000000001,0.45,0,0,1,976,4
0.0517132566616,0.0332381361425,1.10713106263,0.0734692552648,0.407000000001,0.45,2,2,2,977,4
0.0527612661777,0.0383335699355,0.00667209768069,1.10546533645,0.372000000001,0.45,3,3,2,978,4
0.0582370449775,1.05515578466,0.00562792489005,0.0952922660645,0.387000000001,0.45,1,1,2,979,4
0.0509429467427,0.0353630606015,-0.0141742256803,1.05786293287,0.400000000001,0.45,3,3,2,980,4
0.0694343910367,0.0364374622483,1.04700252369,-0.114060374994,0.332000000001,0.45,2,2,2,981,4
0.0520410769399,1.25542101947,-0.00709679492889,0.0392875115494,0.420000000001,0.45,1,1,2,982,4
4.45861898439,-0.00471258784554,0.0052283054147,0.0145674190714,0.390000000001,0.45,0,0,2,983,4
0.0732938054516,0.00809296609392,-0.00704345793172,1.22730917736,0.370000000001,0.45,3,3,2,984,4
2.3765993496,0.0168411578271,-0.00773679502131,0.0493080170479,0.416000000001,0.45,0,0,2,985,4
0.0225378867298,1.41744587924,0.0370684876717,0.0279661448546,0.468000000001,0.45,1,1,1,986,4
0.0486397316591,0.0388016953641,1.23344296766,0.237659526967,0.401000000001,0.45,2,2,2,987,4
1.93605623812,0.0429276275024,0.0153769868538,-0.00136133925316,0.424000000001,0.45,0,0,2,988,4
0.0360263903308,1.13960400966,0.0954524918802,0.348737983605,0.482000000001,0.45,1,1,1,989,4
0.0878277324303,0.00233844688912,1.2235239368,-0.271403687798,0.370000000001,0.45,2,2,2,990,4
0.0540102525502,0.027604424015,0.562092494418,1.14444265697,0.277000000001,0.45,3,3,2,991,4
0.0452281019432,0.321700564837,1.11011971321,0.246193257342,0.400000000001,0.45,2,2,2,992,4
0.0435085017326,4.65560130153,-0.0321870329686,-0.172587331035,0.302000000001,0.45,1,1,2,993,4
1.46053835469,0.0184429161022,-0.00229325469066,-0.0224398590306,0.209000000001,0.45,3,0,-1,994,4
0.0690731238053,2.29941976254,-0.01799550391,-0.0400266894228,0.518000000001,0.45,1,1,1,995,4
1.38659929296,0.0331376204434,-0.000934601880253,-0.00490757564349,0.377000000001,0.45,0,0,2,996,4
0.0684704864257,0.0200587831766,-0.00947857567975,1.09288140747,0.374000000001,0.45,3,3,2,997,4
3.08814842232,0.016487827292,-0.0148729818102,0.0316890239839,0.331000000001,0.45,0,0,2,998,4
0.0237243509,0.0111574810795,1.14888516109,-0.159518120697,0.450000000001,0.45,2,2,1,999,4
2.6758865619,0.0280368500556,-0.0172459625401,-0.0118702851191,0.405000000001,0.45,0,0,2,1000,4
0.0453004036619,1.08184372319,-0.0752153666361,0.147166257715,0.421000000001,0.45,1,1,2,1001,4
0.0375655030533,0.0267802243395,5.74340536685e-05,1.05339958687,0.425000000001,0.45,3,3,2,1002,4
0.0489606382101,0.00440473688285,1.11505092203,-0.146301034677,0.398000000001,0.45,2,2,2,1003,4
0.0150319525737,1.35612191543,-0.0236048017496,0.0457087449647,0.384000000001,0.45,1,1,2,1004,4
-0.0290571265469,-0.00874661606245,3.52020758046,-0.21605885057,0.388000000001,0.45,2,2,2,1005,4
0.0453478933416,0.0261475973222,-0.00146425852836,1.16094245089,0.383000000001,0.45,3,3,2,1006,4
2.8668395524,0.0235507336767,0.00641488519548,0.0392724113318,0.392000000001,0.45,0,0,2,1007,4
0.0714624850079,0.029425988758,-0.000246191846896,1.1121659575,0.470000000001,0.45,3,3,1,1008,4
0.0608024572862,2.36957817387,0.0143122089403,0.11277579464,0.450000000001,0.45,1,1,1,1009,4
1.14391026522,0.0110620637451,-0.0580837220974,-0.017769554717,0.416000000001,0.45,0,0,2,1010,4
0.0609465921288,0.0669023592727,1.32837833857,0.674247465217,0.343000000001,0.45,2,2,2,1011,4
0.0469587711549,0.0291540284522,0.0113143218229,1.01197116566,0.137000000001,0.45,0,3,-1,1012,4
0.0477492383724,0.0285817761075,0.00115068461038,1.10691649373,0.302000000001,0.45,3,3,2,1013,4
0.0501998633523,2.54833941283,-0.0141184567723,0.0210501579698,0.276000000001,0.45,1,1,2,1014,4
0.269418003018,0.174758944668,1.20228005768,-0.0130725748168,0.317000000001,0.45,2,2,2,1015,4
0.0345679355262,0.021831302022,0.00100075999822,1.4492644145,0.456000000001,0.45,3,3,1,1016,4
-0.0890182030887,-0.022834739908,1.39738009452,0.733639247471,0.584000000001,0.45,2,2,1,1017,4
-0.00610539459774,2.38360181913,0.0239084566995,0.0093204901743,0.436000000001,0.45,1,1,2,1018,4
0.0558090895133,1.28092138971,0.00382014565042,0.0272541357814,0.323000000001,0.45,0,1,-1,1019,4
0.0226571063455,1.19671991723,-0.00884466781359,0.0263778940678,0.305000000001,0.45,1,1,2,1020,4
0.0421371476588,0.021697963807,-0.0128867179638,1.33740715393,0.303000000001,0.45,3,3,2,1021,4
1.02796078871,0.133768644739,-0.0403666311821,-0.027878749352,0.435000000001,0.45,0,0,2,1022,4
0.0577326869791,0.0231367487392,1.14168621278,-0.185405003708,0.294000000001,0.45,2,2,2,1023,4
1.44737931411,0.0256052590251,0.000961545507751,0.197141589506,0.397000000001,0.45,0,0,2,1024,4
0.0614887722682,0.0519718816397,1.31131049357,-0.133405486682,0.404000000001,0.45,2,2,2,1025,4
-0.107224187177,3.86502379261,-0.0124830031014,-0.18543138668,0.391000000001,0.45,1,1,2,1026,4
0.0584868082732,0.0145945290033,-0.022906347165,1.15585288506,0.373000000001,0.45,3,3,2,1027,4
0.0468736283179,1.00505711215,0.0186406162523,-0.0179936430599,0.349000000001,0.45,1,1,2,1028,4
0.16208505691,0.051953037827,1.21196368358,0.929143330005,0.325000000001,0.45,2,2,2,1029,4
0.0638855979405,0.0268504384204,-0.0153119255976,1.1128668599,0.372000000001,0.45,3,3,2,1030,4
0.118772101074,0.0429138605124,1.35777982316,-0.274024964657,0.342000000001,0.45,2,2,2,1031,4
2.81952391547,0.0135998923364,0.00788331474389,-0.0194099062187,0.337000000001,0.45,0,0,2,1032,4
-0.0153925369887,1.31053856507,-0.000906020082712,-0.157346147773,0.417000000001,0.45,1,1,2,1033,4
1.13780923634,0.020769575915,0.0206649773601,0.0184020805737,0.419000000001,0.45,0,0,2,1034,4
0.0689756470943,0.016096855171,-0.000932497749528,1.00526413427,0.434000000001,0.45,3,3,2,1035,4
2.06060465926,0.0085241923549,-0.000742025683406,0.0315520895256,0.429000000001,0.45,0,0,2,1036,4
0.0438284067704,0.0237397350388,1.0357918202,-0.0171405510954,0.350000000001,0.45,2,2,2,1037,4
0.0270914992197,1.05700535155,0.00423328282618,-0.0501461960515,0.330000000001,0.45,1,1,2,1038,4
0.0568859984669,0.00357149338456,0.0175489089401,0.0376678368241,0.7,0.45,3,-1,0,1040,4
0.0549818109205,1.21839287576,0.0527520077686,-0.0449829057409,0.433000000001,0.45,1,1,2,1040,4
0.0747804979304,0.0291621883427,1.16441395912,0.229106285732,0.341000000001,0.45,2,2,2,1041,4
0.0469307523532,0.0241391492101,-0.00802137440796,0.0291669315905,0.7,0.45,3,-1,0,1043,4
1.3478640555,0.0110261418702,-0.00259572257843,0.0108739495665,0.358000000001,0.45,0,0,2,1043,4
0.0439225110933,0.0413177812237,0.00515698649883,1.16513843525,0.329000000001,0.45,3,3,2,1044,4
0.0826452247356,0.0273095003133,1.1328032794,-0.171399725687,0.307000000001,0.45,2,2,2,1045,4
0.0785248865388,1.86751291338,0.0170846532656,0.176034153346,0.283000000001,0.45,0,1,-1,1046,4
0.0998939216,1.52726022713,-0.0122060785062,0.0209603091052,0.323000000001,0.45,1,1,2,1047,4
4.35160261211,0.00578688726513,-0.00485122167996,0.0147538821119,0.390000000001,0.45,0,0,2,1048,4
0.119103260011,0.0489019579343,1.09166274528,-0.204914142608,0.391000000001,0.45,3,2,-1,1049,4
0.042274351409,1.14503100842,0.0354833964775,0.104574562629,0.407000000001,0.45,1,1,2,1050,4
0.048412386731,0.0202832143575,2.45040872,-0.0919944156395,0.406000000001,0.45,2,2,2,1051,4
-0.0988376587662,1.05541283226,-0.000566846094015,-0.11528590452,0.432000000001,0.45,1,1,2,1052,4
0.0389644856547,0.00315351586786,0.0201283578027,1.46787448074,0.429000000001,0.45,3,3,2,1053,4
0.0116352384624,0.00073252630925,1.39092251347,0.646099178789,0.389000000001,0.45,2,2,2,1054,4
1.02112853555,0.0227511596186,-0.0554983008232,-0.127119809474,0.491000000001,0.45,0,0,1,1055,4
0.127522732145,1.40493908686,-0.0388871060912,0.300354172069,0.469000000001,0.45,1,1,1,1056,4
1.06445643722,0.0148099111569,-0.0152670415342,0.0163722588275,0.505000000001,0.45,0,0,1,1057,4
0.0160853075108,0.0157049059002,1.01983033884,0.01114813564,0.325000000001,0.45,2,2,2,1058,4
0.0427077335751,0.0219205791431,0.0111243606245,0.0337786486002,0.7,0.45,3,-1,0,1060,4
1.02760399853,0.0231763093038,-0.00478495500766,-0.00111810491883,0.568000000001,0.45,0,0,1,1060,4
0.042342311519,1.02203759294,0.337858424588,0.0441886855872,0.465000000001,0.45,1,1,1,1061,4
0.0539910972366,0.00792311436508,-0.00634225323623,1.19911140681,0.456000000001,0.45,3,3,1,1062,4
0.097796183887,0.0380866672634,1.15529488857,0.119392778155,0.417000000001,0.45,2,2,2,1063,4
0.0395693036258,0.0245514960129,0.0151217025983,1.04866595399,0.474000000001,0.45,3,3,1,1064,4
-0.00368223054519,1.55351241359,0.0120820444902,0.0864393593566,0.456000000001,0.45,1,1,1,1065,4
0.0790095417266,0.0134046646457,0.4025455222,1.37681634844,0.366000000001,0.45,2,3,-1,1066,4
0.109230827796,0.0364681628695,-0.00344088909129,0.0244291643152,0.7,0.45,0,-1,0,1068,4
0.0741782972255,0.0326975793491,1.13663343983,1.11823358451,0.480000000001,0.45,2,2,1,1068,4
0.0618252604535,0.0248405665369,-0.0129238797333,1.38082382097,0.311000000001,0.45,1,3,-1,1069,4
0.178001052233,0.211879906873,0.186326144748,0.0585615761662,0.7,0.45,0,-1,0,1071,4
0.11589614548,0.0665850158322,0.0526495733633,1.24010144205,0.404000000001,0.45,3,3,2,1071,4
1.04157268476,0.0348850381687,0.0153827138264,0.0701537500183,0.268000000001,0.45,0,0,2,1072,4
0.0126227927522,0.0316459088011,1.04633957504,0.063750407308,0.277000000001,0.45,3,2,-1,1073,4
0.0209008454473,0.0312621302853,0.015642002962,0.0503279151806,0.7,0.45,2,-1,0,1075,4
0.0277489119089,2.37126881987,0.00653833963471,0.0259764923762,0.410000000001,0.45,1,1,2,1075,4
0.0273407079519,0.0146000359979,1.47733244626,-0.0949266119711,0.375000000001,0.45,2,2,2,1076,4
0.036005499513,0.0301595283061,-0.00839973423926,1.16372506849,0.331000000001,0.45,3,3,2,1077,4
-0.0163115073258,1.11863241096,-0.000516005578471,0.0229683624056,0.356000000001,0.45,1,1,2,1078,4
0.0312183231406,0.0190214259689,-0.0240879010252,1.10941611549,0.385000000001,0.45,3,3,2,1079,4
1.19348490358,0.0232838227298,0.00166176522526,-0.0168636659703,0.421000000001,0.45,0,0,2,1080,4
-0.0153348490634,0.0223390801283,2.64564875493,-0.120538683658,0.327000000001,0.45,2,2,2,1081,4
1.08227514605,0.0170475896251,-0.00965942004443,-0.0588926739644,0.400000000001,0.45,0,0,2,1082,4
1.84393519399,-0.00189717888036,0.00136733625441,0.0303167896761,0.418000000001,0.45,1,0,-1,1083,4
1.0262204488,0.0120066955271,-0.00636917253649,0.088690039156,0.481000000001,0.45,0,0,1,1084,4
0.0410080135532,0.0310727088558,0.00911076069913,1.17421085027,0.513000000001,0.45,3,3,1,1085,5
1.4829287321,0.0304870143341,0.00146032439979,0.0488406743365,0.371000000001,0.45,0,0,2,1086,5
0.111742667711,1.94172886411,0.00513935460615,0.0366018380697,0.278000000001,0.45,1,1,2,1087,5
0.0370619017082,0.0245299169541,1.55116918599,0.022316982224,0.282000000001,0.45,2,2,2,1088,5
1.13330592125,0.00877174761905,0.0129665295562,0.0224870436059,0.407000000001,0.45,0,0,2,1089,5
0.0773146264943,0.00236972212437,1.16489373407,-0.330915838107,0.331000000001,0.45,2,2,2,1090,5
0.0237563397309,1.00290174846,0.0435464428394,-0.112271911823,0.373000000001,0.45,1,1,2,1091,5
1.33705887556,0.00390584952958,0.0172747450926,0.0123971492192,0.383000000001,0.45,0,0,2,1092,5
0.0562655192662,0.0285058409297,-0.0128405218624,1.06571465835,0.388000000001,0.45,3,3,2,1093,5
0.0991400918944,0.0208092511252,1.15750569578,-0.0354671748988,0.367000000001,0.45,2,2,2,1094,5
0.047722099839,0.0334156594804,0.00967626472544,1.0031955879,0.407000000001,0.45,3,3,2,1095,5
0.109774371671,1.48094351393,0.00516745670249,0.0547840509594,0.324000000001,0.45,1,1,2,1096,5
0.0502374090675,0.0223827603387,0.0028939745785,1.10681019302,0.398000000001,0.45,3,3,2,1097,5
0.0352282909367,0.0019622885904,1.19983608194,-0.212932036895,0.392000000001,0.45,2,2,2,1098,5
0.0559746288056,1.04838695662,0.0106556120109,0.225450844864,0.391000000001,0.45,1,1,2,1099,5
3.35113154233,0.00761305356305,-0.0209104483179,0.0189895961688,0.388000000001,0.45,0,0,2,1100,5
0.0998543050162,1.12785858491,-0.0361883616045,-0.0249923489551,0.431000000001,0.45,1,1,2,1101,5
0.0233249055738,0.0340949515953,1.10575203487,0.0741701673818,0.314000000001,0.45,2,2,2,1102,5
1.1642102234,0.0231228392895,-0.00989128531078,0.0350661168677,0.403000000001,0.45,0,0,2,1103,5
0.0483181209687,0.0269184693211,-0.0227651249529,1.06770408756,0.373000000001,0.45,3,3,2,1104,5
0.130522737812,1.81462524692,0.00884342543634,0.0935536844122,0.338000000001,0.45,1,1,2,1105,5
-0.10655622123,-3.22908652064e-05,3.00546384892,-0.100663266545,0.383000000001,0.45,3,2,-1,1106,5
1.01921065339,0.0438011064037,-0.0461424964148,-0.0770004159593,0.471000000001,0.45,0,0,1,1107,5
0.0735374931675,-0.012055174414,1.38399412103,0.0684432220572,0.357000000001,0.45,2,2,2,1108,5
0.0346475373659,0.00659480782691,-0.0298351221688,1.00379349949,0.282000000001,0.45,3,3,2,1109,5
0.0286118082576,0.0732740082288,-0.0083435257893,0.0524482900599,0.7,0.45,0,-1,0,1111,5
0.144444185198,0.010688473321,1.41269525031,-0.328769943151,0.498000000001,0.45,2,2,1,1111,5
-0.139602199561,1.29879625349,0.0332760956286,-0.0588226341836,0.421000000001,0.45,1,1,2,1112,5
-0.0593539755492,-0.0312357725244,0.871051203216,1.30455096036,0.441000000001,0.45,2,3,-1,1113,5
0.0481539309604,0.0224092751908,-0.00231774437972,1.03507286234,0.349000000001,0.45,0,3,-1,1114,5
0.0943225265129,2.02518146017,0.0932582750493,0.414032765591,0.662000000001,0.45,1,1,1,1115,5
0.0307474755304,0.0248687584164,0.0288608318593,1.1754460774,0.495000000001,0.45,3,3,1,1116,5
0.0430659893365,1.04946183065,0.00511984346592,0.0411229825217,0.448000000001,0.45,2,1,-1,1117,5
0.0209992587672,0.0402827773371,0.00536346156744,1.1410304264,0.491000000001,0.45,3,3,1,1118,5
0.0982231481184,1.34645534089,0.021325660288,0.128992995877,0.450000000001,0.45,1,1,1,1119,5
1.08053401896,0.0102146928067,-0.0204424142792,0.0382086777531,0.374000000001,0.45,0,0,2,1120,5
0.0104112680844,0.0285235277854,0.0038558846681,1.29800757724,0.344000000001,0.45,3,3,2,1121,5
0.0178560887974,1.30235190561,-0.0140131515504,0.0436893551413,0.280000000001,0.45,1,1,2,1122,5
1.21478876563,0.00597169490456,0.00725324263688,0.0692923045084,0.360000000001,0.45,0,0,2,1123,5
-0.0613630077062,2.06002680155,0.00546584199095,0.0474936222874,0.391000000001,0.45,2,1,-1,1124,5
0.0567332528533,0.0343301336847,-0.00413902632154,0.0306740616407,0.7,0.45,0,-1,0,1126,5
0.0198921680197,1.03055582791,0.100889924271,0.0375955308012,0.524000000001,0.45,1,1,1,1126,5
0.0934079424954,0.175732145941,1.00078610604,0.190869921949,0.540000000001,0.45,2,2,1,1127,5
0.0173094687109,1.09269040509,0.0327525276732,0.0231312625165,0.541000000001,0.45,1,1,1,1128,5
0.114781523193,0.0927879883024,0.0724951947008,1.06105259534,0.390000000001,0.45,3,3,2,1129,5
1.18141559761,0.187076338173,0.0339115672234,0.073133558198,0.327000000001,0.45,0,0,2,1130,5
0.0848008897752,0.299967832013,0.530895879708,1.24696476812,0.377000000001,0.45,3,3,2,1131,5
0.117195733522,0.162059476049,1.11260422546,0.401712589899,0.491000000001,0.45,2,2,1,1132,5
0.413126049783,0.748120605331,0.314561338384,0.417997037878,0.7,0.45,3,-1,0,1134,5
1.04827438305,0.410003419115,0.209103474314,0.480291709251,0.531000000001,0.45,0,0,1,1134,5
0.100836671358,0.0787304697257,1.09330693783,0.339229568531,0.349000000001,0.45,1,2,-1,1135,5
0.0955996771171,0.0303173963805,1.18657312287,0.0482107042784,0.640000000001,0.45,2,2,1,1136,5
0.0591861604384,1.33312446509,-0.0380503421062,0.0153578150104,0.449000000001,0.45,1,1,2,1137,5
1.19852767214,0.0262689002465,-0.00901905469728,0.134532610842,0.377000000001,0.45,0,0,2,1138,5
-0.0542740540002,-0.012004819607,1.22775403204,0.112532169278,0.397000000001,0.45,2,2,2,1139,5
-0.0206678990599,1.24124196928,0.15921098291,0.184846161542,0.390000000001,0.45,0,1,-1,1140,5
0.0435474656845,0.0460053901313,0.0041993158367,1.52420541136,0.480000000001,0.45,3,3,1,1141,5
0.192275039723,0.0460417055367,1.00546225727,-0.279019151002,0.432000000001,0.45,2,2,2,1142,5
0.0512840576404,0.0218441735042,0.0102435786461,1.26925963571,0.417000000001,0.45,3,3,2,1143,5
0.0127451644522,1.03770604246,0.0269125468408,0.0990436015622,0.386000000001,0.45,1,1,2,1144,5
0.0477565120788,0.0239646286111,-0.00978291734106,1.22470378424,0.399000000001,0.45,3,3,2,1145,5
0.0731981332309,1.09867883235,0.00235752173649,0.0705556674198,0.424000000001,0.45,1,1,2,1146,5
0.156807609214,0.109029308702,1.28770195221,-0.339507727312,0.388000000001,0.45,2,2,2,1147,5
1.4362504658,0.0293717587184,0.0219460053589,0.0259172487382,0.406000000001,0.45,0,0,2,1148,5
0.0317946367735,0.00933930141954,1.23254649058,-0.106889375471,0.385000000001,0.45,2,2,2,1149,5
0.0156306831169,1.41682844594,0.00673728756532,-0.0801360596907,0.362000000001,0.45,1,1,2,1150,5
2.12095507013,0.0236895555738,0.00989404352516,0.0365184718248,0.343000000001,0.45,0,0,2,1151,5
0.074844686784,1.09642758462,-0.00201447318667,-0.00417410481632,0.428000000001,0.45,1,1,2,1152,5
0.0381465856474,0.0348924855864,-0.0163958331989,1.21707875374,0.439000000001,0.45,3,3,2,1153,5
