force_0,force_1,force_2,force_3,rt,rt_threshold,target_finger,selected_finger,score,trial,run
1.0848189768,0.95057426615,1.3365637892,1.22909455809,0.005,0.45,2,2,2,0,0
0.241424823901,0.0947263892098,0.0351192170922,-0.0133045089858,0.7,0.45,3,-1,0,2,0
0.21923618671,0.0778820630183,0.0639937375264,1.10743974968,0.171,0.45,0,3,-1,2,0
0.344912768712,0.48834855302,1.00752655061,0.439836456587,0.474,0.45,1,2,-1,3,0
0.0855107299334,0.0663924845391,0.517143810614,1.09713024637,0.449,0.45,3,3,2,4,0
0.522531575357,1.15755641647,0.187665201939,0.129846050513,0.439,0.45,1,1,2,5,0
1.03482459932,0.637347026015,0.147112652742,0.078482362436,0.401,0.45,0,0,2,6,0
0.178758155327,0.053882990989,0.158359706585,1.07179163979,0.385,0.45,2,3,-1,7,0
0.0688068995628,0.0196798318838,1.12079309811,0.0572790689534,0.304,0.45,1,2,-1,8,0
0.127932619418,0.319517850567,1.10789453512,0.00860140530794,0.509,0.45,2,2,1,9,0
1.0542141589,0.219773699698,0.1067183363,0.007907280175,0.489,0.45,0,0,1,10,0
0.17361668658,0.088856440301,0.570596243255,1.04047009202,0.462,0.45,3,3,1,11,0
0.240220131666,0.735416888973,1.15922835534,0.113031684378,0.528,0.45,2,2,1,12,0
1.00420883775,0.27222055207,0.221973603266,0.0503603264217,0.466,0.45,0,0,1,13,0
0.205787750112,0.0834844002415,0.208568760171,1.03860742213,0.428,0.45,3,3,2,14,0
0.675228374398,1.00255518043,0.304314649219,0.0830204124632,0.438,0.45,1,1,2,15,0
0.245627410098,0.168505805401,0.22756578963,1.1098399622,0.438,0.45,3,3,2,16,0
1.1604433818,0.42769924378,0.159703308057,-0.00110941387547,0.424,0.45,0,0,2,17,0
0.368498601478,1.13116089753,0.481272546245,0.114567914998,0.512,0.45,1,1,1,18,0
1.17272280777,0.992116810112,0.149346532363,0.0147277757695,0.485,0.45,0,0,1,19,0
0.272172509663,0.260763656324,1.07179058919,0.0645412359382,0.487,0.45,2,2,1,20,0
0.0875828198601,0.0281710330246,0.684141284911,1.09938156563,0.461,0.45,3,3,1,21,0
1.01936091677,0.292380004675,0.195553806259,0.148558768212,0.48,0.45,2,0,-1,22,0
0.841418718447,1.04996057965,0.102776531468,-0.00739861726189,0.512,0.45,1,1,1,23,0
0.0982267465632,0.14684497594,1.04890411965,0.247395994949,0.476,0.45,2,2,1,24,0
1.01603816102,0.712942648227,0.216453531275,0.0068973227569,0.478,0.45,0,0,1,25,0
0.0655179648959,0.0521176385892,0.351322539019,1.13840835782,0.507,0.45,3,3,1,26,0
0.413309104629,1.02336619064,0.248581384441,0.0562381871718,0.532,0.45,1,1,1,27,0
1.04257116572,0.183813631763,0.161957950031,0.0352206617595,0.455,0.45,0,0,1,28,0
0.203936531823,1.00420069404,0.283282711287,0.0616398060231,0.605,0.45,1,1,1,29,0
0.0408670967264,0.1380133641,0.323124878939,1.05420717505,0.497,0.45,3,3,1,30,0
1.00802438564,0.381368040024,0.190405497483,0.0334931483679,0.606,0.45,0,0,1,31,0
0.117045960761,0.291761940046,0.285006562142,0.203546236218,0.7,0.45,2,-1,0,33,0
0.0684328953522,0.241530533377,1.01543503243,0.410925893484,0.258,0.45,1,2,-1,33,0
0.525884547505,1.04388571542,0.0623623690542,-0.00680520946401,0.00500000000002,0.45,2,1,-1,34,0
0.0938006792192,0.066230059495,0.198430655587,1.05367183979,0.309,0.45,3,3,2,35,0
0.120695335124,0.128712625712,1.01633552005,0.158423581606,0.375,0.45,2,2,2,36,0
0.125783659443,0.0538599337218,0.677980935554,1.0390382317,0.423,0.45,3,3,2,37,0
1.21690588684,0.364092201664,0.15560272704,0.029051175621,0.435,0.45,0,0,2,38,0
0.415796760578,1.00127005894,0.401235506213,0.0665014542895,0.491,0.45,1,1,1,39,0
1.00003532252,0.3139095899,0.016665027105,0.0334407130758,0.497,0.45,0,0,1,40,0
0.237880326803,0.252554071473,0.156063248148,1.02015548783,0.493,0.45,3,3,1,41,0
0.415621537512,1.01614078465,0.707773295365,0.0503235539647,0.545,0.45,1,1,1,42,0
0.039334825756,0.0948895416271,1.03567991571,0.0270533052895,0.5,0.45,2,2,1,43,0
0.611415462276,1.10220893211,0.0521422826807,0.0341684523326,0.458,0.45,1,1,1,44,0
0.135150514526,0.0884531407735,0.423363498211,1.03636295315,0.426,0.45,3,3,2,45,0
0.128557886255,0.317176480396,1.09507720929,0.0105690007671,0.477,0.45,2,2,1,46,0
1.04867002681,0.316406412622,0.171041054916,0.116186331886,0.367,0.45,0,0,2,47,0
0.337011441713,0.311685993209,1.05279701053,0.133013043356,0.39,0.45,2,2,2,48,0
0.705807091827,1.06936153739,0.0487943654008,0.0407797931938,0.438,0.45,1,1,2,49,0
1.04732334451,0.260576383264,0.0277297863642,0.0324692859709,0.319,0.45,0,0,2,50,0
0.0894908450959,0.147575785783,1.06472722156,0.038319956365,0.356,0.45,3,2,-1,51,0
1.0670414716,0.225230409346,0.123976596946,0.0339286191206,0.46,0.45,0,0,1,52,0
0.1107870794,1.07864899661,0.526380149886,0.115562722163,0.527,0.45,1,1,1,53,0
0.0715501281818,0.0224505937293,0.383144028159,1.19410483534,0.428,0.45,3,3,2,54,0
0.327702940617,1.08914183254,0.0848813533333,0.0315460465019,0.357,0.45,1,1,2,55,0
0.195366518419,0.188686438176,1.01499793159,0.166424870011,0.424,0.45,2,2,2,56,0
0.127000525641,0.103875235646,0.505161059221,1.01484766202,0.395,0.45,3,3,2,57,0
0.132760260293,0.271521784925,1.04923568798,0.208433108462,0.431,0.45,2,2,2,58,0
1.02143103219,0.218068296944,0.0538498982694,0.159127431074,0.342,0.45,0,0,2,59,0
0.0496788902243,0.0809847264839,1.00281246059,0.456920763569,0.439,0.45,2,2,2,60,0
1.16873399142,0.072192641108,0.124615548168,0.215288370203,0.367,0.45,0,0,2,61,0
0.460259949771,1.02919663982,0.103195794161,0.0429686448356,0.356,0.45,1,1,2,62,0
0.216417167642,0.0544504204482,0.170804086192,1.12296979577,0.333,0.45,3,3,2,63,0
0.211421507356,1.12902415299,0.109206705912,0.120479490555,0.341,0.45,1,1,2,64,0
1.36003912203,0.130943381951,0.257081676547,0.233948779151,0.449,0.45,0,0,2,65,0
0.102365012311,0.0215886757638,0.598980081643,1.13726904568,0.389,0.45,3,3,2,66,0
0.339133338991,1.00175366082,0.0674528234507,0.0501629059981,0.509,0.45,2,1,-1,67,0
0.0677542585253,0.0217283448895,0.406857227224,1.04718851941,0.528,0.45,3,3,1,68,0
1.16915893146,0.0131892002244,0.0308240943432,0.0213954780707,0.476,0.45,0,0,1,69,0
0.111833420555,0.0339163814624,1.04146635313,0.0603697777805,0.371,0.45,2,2,2,70,0
0.131264684927,1.04169067593,0.119381732225,0.0811769440043,0.503,0.45,1,1,1,71,0
0.0269789189463,0.103864658298,1.03719656504,0.735646292152,0.526,0.45,2,2,1,72,0
1.05630701027,-0.000135533678498,0.0339540910239,0.0359912393781,0.575,0.45,0,0,1,73,0
1.06000446287,0.888127145379,0.047321447962,0.0101265927417,0.552,0.45,1,0,-1,74,0
0.0135903998994,0.0312929319899,0.2883336293,1.08651237597,0.519,0.45,3,3,1,75,0
0.0159144659317,1.13195362233,0.0244904197921,0.0363462186486,0.441,0.45,1,1,2,76,0
1.19108501761,0.336409199995,-0.0163160315428,-0.0103372342289,0.421,0.45,0,0,2,77,0
0.0322037407009,0.0807071175592,0.257613862227,1.03320751572,0.429,0.45,3,3,2,78,0
0.0482246439111,0.159800651744,1.16635840826,0.868006634962,0.437,0.45,2,2,2,79,0
0.0406386741567,0.065751208767,1.00708598852,0.116694424432,0.453,0.45,3,2,-1,80,0
1.09798580661,-0.0259523870054,0.0145846619731,0.135381637839,0.463,0.45,0,0,1,81,0
0.0371116287245,0.0575327434003,1.06822320676,0.172056693183,0.658,0.45,2,2,1,82,0
0.139004995771,1.10980553363,0.0336348460525,0.0441171893754,0.546,0.45,1,1,1,83,0
0.0399177578648,0.0178689608833,1.10048843218,0.0669878949499,0.427,0.45,2,2,2,84,0
0.0230598191107,0.0501169352273,0.104409340919,0.283294148789,0.7,0.45,0,-1,0,86,0
0.0168660349903,0.367505469326,0.34687526305,0.0334874565182,0.7,0.45,1,-1,0,87,0
0.0459105984744,0.0795331861002,0.362734201346,1.06450260377,0.663,0.45,3,3,1,87,0
0.352568670238,1.15712696447,0.10648301452,0.0325042854216,0.497,0.45,1,1,1,88,0
1.19963331393,0.116873316271,0.0348769608087,0.0155771822214,0.404,0.45,0,0,2,89,0
0.0332775427739,0.0627811848629,0.268215218613,1.1345368777,0.354,0.45,3,3,2,90,0
0.0378121956877,0.045720137652,1.03343128482,0.168604520293,0.374,0.45,2,2,2,91,0
0.0393491943271,1.13206651664,0.126332535538,0.151911131154,0.332,0.45,1,1,2,92,0
0.00676862849263,0.0102138877815,1.11092438037,0.227888793606,0.385,0.45,2,2,2,93,0
0.00745607343563,0.02394088381,0.146153366576,1.02582244551,0.322,0.45,3,3,2,94,0
1.14036033392,0.121788403246,0.122156246749,0.332455291689,0.363,0.45,0,0,2,95,0
0.072246155367,0.121450003989,1.03448485144,0.476675441622,0.418,0.45,2,2,2,96,0
0.115089896177,0.0487653134026,0.266583819063,1.04108395507,0.385,0.45,3,3,2,97,0
1.10364063068,0.157334281889,0.147486950428,0.260813817781,0.324,0.45,0,0,2,98,0
0.509920790621,1.10997538991,0.245480656483,0.150647719838,0.355,0.45,1,1,2,99,0
0.150911491234,0.10365465517,0.345541052686,1.02774426164,0.35,0.45,3,3,2,100,0
0.450124766254,1.07255143061,0.204610706313,0.194616243845,0.347,0.45,1,1,2,101,0
1.03536249367,0.267756954409,0.285197078997,0.196040383933,0.381,0.45,0,0,2,102,0
0.0957812070477,0.745142824074,1.00645856696,0.315878402124,0.423,0.45,2,2,2,103,0
0.21219662115,1.15125794542,0.155043592652,0.201738243715,0.436,0.45,1,1,2,104,0
0.0783783109207,0.224839837132,1.01814128861,0.289836436047,0.422,0.45,2,2,2,105,0
1.11555297718,0.10183293405,0.224903572037,0.35810472841,0.41,0.45,0,0,2,106,0
0.174709474878,0.0794219158351,0.245843518042,1.07250941119,0.438,0.45,3,3,2,107,0
0.176549801981,0.130331922596,1.0026887439,0.383870877134,0.443,0.45,2,2,2,108,0
0.282171330556,1.04467177503,0.190792617885,0.324026130205,0.443,0.45,1,1,2,109,0
0.179826665758,0.0723197686866,0.362012858282,1.06931195186,0.457,0.45,3,3,1,110,0
1.12089764203,0.0441624492056,0.0908826746387,0.406151543968,0.441,0.45,0,0,2,111,0
0.327482906264,1.08710796248,0.651366538593,0.280544936444,0.434,0.45,1,1,2,112,0
1.13250057369,0.0436767694899,0.0774753923425,0.258469395433,0.442,0.45,0,0,2,113,0
0.189859696254,0.120391073791,0.179873410343,1.06700849258,0.354,0.45,3,3,2,114,0
0.0975569821632,0.135107221569,1.00540581276,0.309606815423,0.425,0.45,2,2,2,115,0
1.06529050021,0.294375184394,0.109002517347,0.271996338146,0.422,0.45,0,0,2,116,0
0.100445906192,0.0931046910535,1.01687615982,0.322327401085,0.351,0.45,2,2,2,117,0
0.280479060078,0.0376501111135,0.418799960512,1.0163465422,0.396,0.45,3,3,2,118,0
0.18684304609,1.10377437247,0.0430995353132,0.0876272249764,0.48,0.45,1,1,1,119,0
0.0903163469495,0.0509084682705,1.11903225218,0.740066881892,0.513,0.45,2,2,1,120,0
0.0944988390238,1.15322539114,0.056762964877,0.0843736538303,0.467,0.45,1,1,1,121,0
0.0851153303098,0.0389999934287,0.85315033502,1.14044678522,0.394,0.45,3,3,2,122,0
1.19036512822,0.320127682468,0.0597756611424,0.141328854222,0.422,0.45,0,0,2,123,0
0.0464386707815,0.0404910279291,0.533197059701,1.00620817501,0.36,0.45,3,3,2,124,0
0.0963730460594,1.13452323984,0.0691682582342,0.0627677131608,0.349,0.45,1,1,2,125,0
1.56628474853,0.0212359048447,0.279676299047,0.283654815403,0.4,0.45,0,0,2,126,0
0.241019947366,1.22987146246,0.201881754818,0.346974574617,0.446,0.45,1,1,2,127,0
0.00236080134774,0.0255586591745,1.12294560723,0.299770441757,0.376,0.45,2,2,2,128,0
1.18660371813,0.216560422667,0.113293677141,0.2049704395,0.415,0.45,0,0,2,129,0
0.0813213243029,0.117756806614,1.08895666803,0.362861173694,0.417,0.45,2,2,2,130,0
0.174373790703,0.0744976821297,0.334131137023,1.06047416943,0.417,0.45,3,3,2,131,0
0.128024296513,0.108495254649,1.11694905673,0.346579747554,0.399,0.45,2,2,2,132,0
0.0924025601107,0.143238427572,0.224854567993,1.06515783142,0.384,0.45,3,3,2,133,0
1.10452530969,0.14680173016,0.130478723787,0.313577585432,0.377,0.45,0,0,2,134,0
1.16433763063,0.0938070752283,0.173946204087,0.331459459594,0.39,0.45,1,0,-1,135,0
0.0558671191553,0.061892102071,0.403866390029,1.06515962384,0.388,0.45,3,3,2,136,0
0.0859180478682,1.12668937981,0.129298700615,0.112447518234,0.416,0.45,1,1,2,137,0
1.30372910259,0.117465231094,0.12530383302,0.347709803746,0.385,0.45,0,0,2,138,0
0.0953208765028,0.0399441201939,0.437762621639,1.09050282124,0.37,0.45,3,3,2,139,0
0.0854643021432,0.0176994311885,1.05550712032,0.357354032465,0.359,0.45,2,2,2,140,0
0.281397033629,1.12837939634,0.248481014317,0.24753431751,0.449,0.45,1,1,2,141,0
0.083719601819,0.0290996767288,1.17881400811,0.20708263961,0.42,0.45,2,2,2,142,0
1.10815367124,0.733026841158,0.0388624109708,0.114568716325,0.429,0.45,0,0,2,143,0
0.0812373970526,0.00362391908256,1.04548499618,0.227404384311,0.416,0.45,2,2,2,144,0
0.182563501188,1.03602230645,0.16160911684,0.209301716723,0.466,0.45,1,1,1,145,0
0.0349103919068,0.057798218741,0.767923117021,1.09160095542,0.447,0.45,3,3,2,146,0
1.65181181771,0.0592876454819,0.0328315967127,0.137497841789,0.438,0.45,0,0,2,147,0
0.0526658534317,1.01370871232,0.187759838326,0.150363512322,0.48,0.45,1,1,1,148,0
1.08033672679,0.137874373807,0.0738265738482,0.153598429577,0.539,0.45,0,0,1,149,0
0.205901985841,0.0388746747429,0.0826624910769,0.266521291542,0.7,0.45,3,-1,0,151,0
0.102051485426,0.19326632096,0.23017993425,0.338489248561,0.7,0.45,1,-1,0,152,0
0.0793779533078,0.161918325389,0.201157017542,0.327047539195,0.7,0.45,2,-1,0,153,0
0.0713099428407,0.0876023743427,0.150857612494,1.04121826433,0.399,0.45,3,3,2,153,0
0.180611747963,0.0837034656286,1.04781037242,0.150980559297,0.459,0.45,2,2,1,154,0
1.02233280101,0.0661900228657,0.0731775627699,0.23795434184,0.432,0.45,0,0,2,155,0
0.120117924042,0.0931679285109,1.06336578364,0.279582248601,0.46,0.45,2,2,1,156,0
0.401927507929,1.04791321688,0.0940482255793,0.13484426361,0.344,0.45,1,1,2,157,0
1.05255619066,0.0500755569127,0.156341200274,0.178736990462,0.303,0.45,0,0,2,158,0
0.161970469466,0.0272403679013,0.378050160924,1.08386097552,0.336,0.45,3,3,2,159,0
1.10171171448,0.0238190735228,0.163668706678,0.241602145257,0.36,0.45,0,0,2,160,0
0.74309782428,1.07451534409,0.121469502184,0.0835615018219,0.38,0.45,1,1,2,161,0
0.0578031738725,0.0390633264057,0.473017242,1.12598401783,0.474,0.45,3,3,1,162,0
0.0776913886543,0.104480871168,1.08364836522,0.0269773789681,0.522,0.45,2,2,1,163,0
0.0780728114676,0.0392070241834,0.725040499058,1.00667935548,0.503,0.45,3,3,1,164,0
0.0781186218932,1.07931668651,0.110861077458,0.314121016705,0.48,0.45,1,1,1,165,0
0.0698421878164,0.0165879115711,1.02673126419,0.476624384903,0.558,0.45,2,2,1,166,0
1.5824838456,0.312700991496,0.113452475364,0.057580316986,0.368,0.45,0,0,2,167,0
0.245343904848,0.149390359421,0.807899248893,0.224898371287,0.7,0.45,2,-1,0,169,0
0.207206141828,0.131598723508,1.12618728569,0.231363943452,0.0180000000001,0.45,3,2,-1,169,0
1.21592053712,0.117029115345,0.119098394727,0.216786319829,0.337,0.45,0,0,2,170,0
0.432305742178,1.19952438441,0.285745243041,0.286564916832,0.483,0.45,1,1,1,171,0
1.06565385547,0.156376227675,0.19456262546,0.440089451378,0.469,0.45,0,0,1,172,0
0.166568086776,0.0905215578426,0.276344957252,1.04483807327,0.389,0.45,3,3,2,173,0
0.447845937019,1.08238248669,0.131160827735,0.271683071493,0.4,0.45,1,1,2,174,0
0.112661266567,0.029997000546,0.19021537441,1.00122619648,0.37,0.45,3,3,2,175,0
0.143574711151,0.128132363845,1.10600239083,0.404645252419,0.456,0.45,2,2,1,176,0
0.493264467649,1.08235953283,0.121811178228,0.23409278292,0.401,0.45,1,1,2,177,0
0.0854102005035,0.0506454039829,1.0814228676,0.284271279085,0.432,0.45,2,2,2,178,0
1.30458031863,0.100497123233,0.132084290508,0.383657068031,0.369,0.45,0,0,2,179,0
0.0709185350362,0.136282270671,1.07570891368,0.398244302461,0.376,0.45,2,2,2,180,0
0.100576324704,0.0660677250348,0.670052417009,1.1115180641,0.462,0.45,3,3,1,181,0
0.184055689545,1.19316780757,0.218332127812,0.412873294754,0.412,0.45,1,1,2,182,0
1.05197929741,0.0950123799649,0.178775442135,0.318700043844,0.294,0.45,0,0,2,183,0
0.0781259560389,0.146493852074,0.917955738743,1.16852457827,0.365,0.45,3,3,2,184,0
1.32804188433,0.485099612291,0.132380883863,0.305407588576,0.431,0.45,0,0,2,185,0
0.115225409984,1.03811309073,0.209258791749,0.213794404469,0.42,0.45,1,1,2,186,0
0.0454292542173,0.0481304535163,0.385369090377,1.11139258801,0.369,0.45,3,3,2,187,0
0.0607463459919,0.118856076865,1.05174720934,0.647408244767,0.424,0.45,2,2,2,188,0
1.53552145635,0.684929395938,0.132779880622,0.154771546483,0.438,0.45,0,0,2,189,0
0.0719661776727,0.0905706735976,1.00574884203,0.660784170387,0.458,0.45,2,2,1,190,0
1.18570750812,0.0740758965157,0.135462938384,0.274508628821,0.437,0.45,1,0,-1,191,0
0.0427601121859,0.00794845964172,1.02389157577,0.087309458824,0.41,0.45,2,2,2,192,0
0.115564145464,0.0877587564172,0.295094781612,1.10993000423,0.374,0.45,3,3,2,193,0
1.11496320837,0.162491178106,0.0684017431182,0.173674876049,0.407,0.45,0,0,2,194,0
0.0390637247751,1.09697521792,0.159833104743,0.207309261307,0.369,0.45,1,1,2,195,0
0.0404948256294,0.0312497404767,0.490200667512,1.03494869426,0.383,0.45,3,3,2,196,0
0.0392489277222,1.01894693727,0.0946747505554,0.150674899395,0.332,0.45,1,1,2,197,0
1.07485293197,0.456667531933,0.104729506287,0.271001085453,0.345,0.45,0,0,2,198,0
0.0557408377139,0.0195268974832,0.373419179732,1.10615800081,0.437,0.45,3,3,2,199,0
0.0913783033251,0.062929501167,1.03244986199,0.345715118377,0.404,0.45,2,2,2,200,0
0.064809666402,0.510665403185,1.01300771292,0.31853938952,0.414,0.45,1,2,-1,201,0
0.058397649761,0.0629861889321,1.11098514579,0.249990011832,0.441,0.45,2,2,2,202,0
1.01925312627,0.0911172860522,0.0745321742259,0.297959933954,0.463,0.45,0,0,1,203,0
0.0783716690732,0.0576119672127,1.01247593752,0.361790856524,0.395,0.45,2,2,2,204,0
0.156876441435,1.05331520988,0.13077013563,0.224550407102,0.541,0.45,1,1,1,205,0
1.05358773402,0.0193811310416,0.0475185109067,0.106471487455,0.502,0.45,0,0,1,206,0
0.0322732115644,0.0368595272565,0.047020281078,1.06385663185,0.457,0.45,3,3,1,207,0
1.14086087615,0.0497234625163,0.0647530663244,0.149756274646,0.425,0.45,0,0,2,208,0
0.705567054979,0.689603281508,0.0334350294144,0.143225759973,0.7,0.45,1,-1,0,210,0
0.178535769858,0.0418031358177,0.049377165383,0.0952425753711,0.7,0.45,3,-1,0,211,0
0.324490233175,0.151904436282,0.325294242951,0.338230454777,0.7,0.45,1,-1,0,212,0
0.240863119087,0.199234788629,0.335384330848,0.317884455682,0.7,0.45,2,-1,0,213,0
0.148163518256,0.0670210761718,0.300691254342,1.00625072833,0.401,0.45,3,3,2,213,0
0.132218679018,0.135286116439,1.02921431743,0.316258846869,0.488,0.45,2,2,1,214,0
1.06925862727,0.106713360787,0.0999920096377,0.348596160662,0.474,0.45,0,0,1,215,0
0.290252210335,0.180512373055,1.11203630277,0.324185676004,0.441,0.45,2,2,2,216,0
0.205051883077,0.178360435587,1.13828183526,0.34622007553,0.625,0.45,2,2,1,217,1
0.225123665308,0.0801041217653,0.207307332584,1.11723433048,0.487,0.45,3,3,1,218,1
0.457558807927,1.0388614148,0.204823653118,0.389398641594,0.405,0.45,1,1,2,219,1
1.21544231479,0.0683447661497,0.113094717032,0.394096116413,0.324,0.45,0,0,2,220,1
0.286658565935,0.0595665614624,0.143676506504,1.00903126608,0.263,0.45,3,3,2,221,1
1.10544138955,0.15377454069,0.10102669461,0.388867231209,0.304,0.45,0,0,2,222,1
0.425316087058,1.0269932055,0.141801108594,0.269159083053,0.285,0.45,1,1,2,223,1
0.27016146941,0.0399877741067,0.274895190046,1.21322613531,0.275,0.45,3,3,2,224,1
0.216598238173,0.0756738981301,1.00482433054,0.372987789445,0.431,0.45,2,2,2,225,1
1.08680952589,0.102432074954,0.0710275713389,0.407092451055,0.389,0.45,0,0,2,226,1
0.311605673513,0.13966395827,1.07698808438,0.372117296679,0.365,0.45,2,2,2,227,1
1.25889949104,0.100945613059,0.113685723747,0.443116497801,0.327,0.45,1,0,-1,228,1
0.118550760921,0.0684770874238,1.0534649566,0.366127768605,0.343,0.45,2,2,2,229,1
0.148015414914,0.0757309704111,0.418276263339,1.07908195134,0.386,0.45,3,3,2,230,1
2.32202425451,0.114697900803,0.0799512186647,0.354076248279,0.482,0.45,0,0,1,231,1
0.15033929043,1.073032159,0.0708446475574,0.140472908052,0.475,0.45,1,1,1,232,1
0.221278168088,0.0968859964848,0.251653566798,1.27698825741,0.475,0.45,3,3,1,233,1
0.474989100097,1.03230855416,0.119167627655,0.196120092225,0.441,0.45,1,1,2,234,1
1.1103526065,0.0852835980164,0.0916507063026,0.224241955577,0.362,0.45,0,0,2,235,1
0.28537906227,0.11480694111,0.156938410966,1.10967269295,0.296,0.45,3,3,2,236,1
0.193377457216,0.363697925722,1.01359237806,0.327586774443,0.369,0.45,2,2,2,237,1
0.194858404195,0.642405258494,1.12605087296,0.239638753508,0.461,0.45,1,2,-1,238,1
0.166148776575,0.115982416804,1.03979461519,0.220547915739,0.641,0.45,2,2,1,239,1
1.22776864886,0.0876895395835,0.050522823462,0.277518100788,0.448,0.45,0,0,2,240,1
0.163233423051,0.106270163868,1.21332776493,0.276854385466,0.557,0.45,2,2,1,241,1
1.21295119012,0.104300806575,0.102909180265,0.361475740316,0.357,0.45,1,0,-1,242,1
1.04946477076,0.0690394207235,0.157295216133,0.254592620815,0.631,0.45,0,0,1,243,1
0.113936372619,0.073361559918,0.645638029207,1.12540444921,0.451,0.45,3,3,1,244,1
1.19296141141,0.0500481312496,0.0605084054502,0.111380385953,0.347,0.45,0,0,2,245,1
0.339796071024,1.08935183256,0.0963919366577,0.113931137799,0.359,0.45,1,1,2,246,1
0.21755507047,0.138872468386,0.109575484746,1.06551130685,0.428,0.45,3,3,2,247,1
0.468691861562,1.07287001304,0.249428135239,0.595284641179,0.473,0.45,1,1,1,248,1
0.160119415946,0.16133684464,1.02487228076,0.378665335781,0.393,0.45,2,2,2,249,1
1.2308484079,0.171901750846,0.157344178851,0.158842661983,0.395,0.45,0,0,2,250,1
0.269585855418,0.0917700839472,1.01730963831,0.929063677792,0.373,0.45,2,2,2,251,1
0.157291970318,0.106388997075,0.366467806178,1.25626703591,0.491,0.45,3,3,1,252,1
0.176359408883,0.19389163354,1.31798883244,0.709929358026,0.457,0.45,2,2,1,253,1
0.143670828469,0.0925583457666,0.237428788642,1.13249356283,0.4,0.45,3,3,2,254,1
1.11711546462,0.400313070071,0.1777381789,0.0418650735619,0.43,0.45,1,0,-1,255,1
0.349097827909,0.188698724224,0.182812908989,0.0236527416387,0.7,0.45,0,-1,0,257,1
0.510495208631,1.20620912759,0.190166510011,0.0233704846457,0.589,0.45,1,1,1,257,1
0.30466480664,0.0939122050825,0.394485692776,1.18940063743,0.406,0.45,3,3,2,258,1
1.02860770619,0.333073343279,0.100089930072,0.0467782639598,0.425,0.45,0,0,2,259,1
0.0986417215994,0.226732339103,1.04247328006,0.358176965429,0.481,0.45,2,2,1,260,1
0.300965846128,1.07038485627,0.215168743089,0.0485499018682,0.488,0.45,1,1,1,261,1
0.171817614228,0.211582854691,1.0356849762,0.311896936484,0.345,0.45,2,2,2,262,1
1.05429240795,0.209903341817,0.208390305161,0.157264918247,0.359,0.45,0,0,2,263,1
0.249352714267,0.157608711808,0.409373154572,1.02457776834,0.341,0.45,3,3,2,264,1
0.152255930394,0.272528194067,1.08683725939,0.170954697354,0.431,0.45,2,2,2,265,1
0.13391281899,0.0811332426119,0.574955942364,1.21813969706,0.454,0.45,3,3,1,266,1
1.18983482823,0.0947732985343,0.184177147587,0.170227055809,0.41,0.45,0,0,2,267,1
0.163528654246,1.03265585673,0.201902866847,0.0538498134231,0.551,0.45,1,1,1,268,1
1.17204219559,0.16045393212,0.306164089764,0.193695351053,0.483,0.45,0,0,1,269,1
0.238442288502,0.0781700090734,0.195030404349,1.03305601406,0.395,0.45,3,3,2,270,1
0.531620833624,1.02477652595,0.168683139532,0.105740766063,0.456,0.45,1,1,1,271,1
0.121064024783,0.0520374206709,1.08460851696,0.3860006589,0.405,0.45,2,2,2,272,1
0.317189347244,1.0168203987,0.1931458194,0.13268445461,0.502,0.45,1,1,1,273,1
0.144188324569,0.0603377180708,0.272427450354,1.08156093613,0.362,0.45,3,3,2,274,1
0.118122260496,0.102811205489,1.12999621748,0.585323028989,0.452,0.45,2,2,1,275,1
1.27949435936,0.0908620207119,0.213330423656,0.227672744914,0.441,0.45,0,0,2,276,1
0.104503240162,0.092126269859,1.02408889129,0.441876878872,0.442,0.45,2,2,2,277,1
0.200969356371,1.51011628862,0.226200936262,0.206729540891,0.548,0.45,1,1,1,278,1
1.12582750853,0.0843938333781,0.316837285992,0.310176803177,0.403,0.45,0,0,2,279,1
0.124010885785,0.0655539491312,0.401699060294,1.16966790424,0.316,0.45,3,3,2,280,1
1.1208776579,0.104355694766,0.237386612481,0.202652322545,0.473,0.45,0,0,1,281,1
0.142859594866,1.05052627679,0.361527594486,0.311021920514,0.457,0.45,1,1,1,282,1
0.112643842497,0.14852498817,0.290700121994,1.04462512826,0.366,0.45,3,3,2,283,1
0.113038750407,1.23005667332,0.275659156669,0.14489612206,0.344,0.45,1,1,2,284,1
0.180795227526,0.370679223927,1.08385920531,0.876215033936,0.425,0.45,2,2,2,285,1
1.26199773171,0.212772761189,0.21901144861,0.197784719242,0.329,0.45,0,0,2,286,1
0.159758047355,0.19635900454,1.08050751028,0.560047390155,0.392,0.45,2,2,2,287,1
0.181743214774,0.0975620794542,0.227718542368,1.00102205916,0.354,0.45,3,3,2,288,1
0.228926505919,0.176772913464,1.00084585651,0.264890551915,0.422,0.45,2,2,2,289,1
0.235243551453,1.00769765843,0.844989845192,0.214585352807,0.425,0.45,1,1,2,290,1
0.169366192861,0.118872845618,0.401588902478,1.30623318881,0.415,0.45,3,3,2,291,1
1.1144883775,0.0670428376433,0.21094914243,0.264096785156,0.367,0.45,0,0,2,292,1
0.191717496732,1.00553665168,0.352722752324,0.247618794665,0.402,0.45,1,1,2,293,1
1.05262477578,0.160679580539,0.380868167457,0.428313355661,0.46,0.45,0,0,1,294,1
0.178916502659,0.177337724601,0.38654130021,1.01691358545,0.434,0.45,3,3,2,295,1
0.228516248389,0.142862718922,1.12721396872,0.19287104401,0.483,0.45,2,2,1,296,1
1.03079522006,0.0862162644715,0.184244751577,0.217376283771,0.436,0.45,0,0,2,297,1
0.377848895841,0.140830413603,1.00919138426,0.410686597994,0.35,0.45,2,2,2,298,1
0.227124722251,0.099376584749,0.676262656608,1.00833028078,0.508,0.45,3,3,1,299,1
0.341212784646,0.209010044916,0.191458174972,0.742589529433,0.7,0.45,1,-1,0,301,1
0.712322942623,1.22291913219,0.218116090128,0.788422611644,0.104,0.45,2,1,-1,301,1
1.21397881751,0.151067791476,0.294408711116,0.196246116051,0.414,0.45,1,0,-1,302,1
0.199739746723,0.240867029089,0.215304943552,0.364369572869,0.7,0.45,3,-1,0,304,1
0.238822856601,0.261514345462,0.20015910166,0.345062794405,0.7,0.45,0,-1,0,305,1
0.205405495139,0.126163527138,0.474240056727,1.16170966624,0.408,0.45,3,3,2,305,1
0.173353590216,1.06445512076,0.304305744271,0.470605207475,0.415,0.45,1,1,2,306,1
1.01633897286,0.305188571598,0.342628236294,0.423789026855,0.36,0.45,0,0,2,307,1
0.49694712709,0.436379852087,1.00026496347,0.24499257919,0.448,0.45,2,2,2,308,1
0.437014794883,0.144660809751,0.215407461799,1.04946017235,0.368,0.45,3,3,2,309,1
0.21045334816,0.205765073159,1.08746553286,0.355036700605,0.419,0.45,2,2,2,310,1
1.0067828073,0.310500791879,0.228950659827,0.108539611153,0.391,0.45,0,0,2,311,1
0.581222981524,1.2521471494,0.391669872677,0.221059760951,0.464,0.45,1,1,1,312,1
0.238868560515,0.109981194628,1.0919653636,0.304726673684,0.351,0.45,2,2,2,313,1
0.452660655598,1.04299796944,0.203282978056,0.110960036539,0.444,0.45,1,1,2,314,1
1.13047415629,0.290253969932,0.325677933815,0.145989600342,0.408,0.45,0,0,2,315,1
0.317755549483,0.119285251589,0.44958063982,1.1778281693,0.436,0.45,3,3,2,316,1
0.38991835466,1.03124384659,0.371920679128,0.106041505735,0.442,0.45,1,1,2,317,1
0.239323412231,0.0938542075412,0.425779927535,1.03826851041,0.389,0.45,3,3,2,318,1
1.11704329511,0.215999807082,0.195103235799,0.0699090175641,0.452,0.45,0,0,1,319,1
0.216345228176,1.30134691837,0.779503571016,0.320698917182,0.499,0.45,1,1,1,320,1
0.165773027391,0.245609390503,1.0204287332,0.203659108986,0.361,0.45,2,2,2,321,1
0.12559445815,0.0671714195453,1.0283743124,0.301982332716,0.305,0.45,3,2,-1,322,1
0.167953378785,1.06244792773,0.182330684374,0.231595597688,0.439,0.45,2,1,-1,323,1
1.05369657153,0.213910625137,0.180709190309,0.0742803331222,0.414,0.45,0,0,2,324,1
0.122082494431,0.0739682155689,1.12696106918,0.17749291426,0.312,0.45,2,2,2,325,1
0.194879269084,0.120718400466,0.263245135836,1.021233614,0.384,0.45,3,3,2,326,1
1.15869981785,0.193664805322,0.239590963804,0.212934228764,0.421,0.45,0,0,2,327,1
0.407670708176,1.10221338731,0.285299745154,0.241570085043,0.405,0.45,1,1,2,328,1
1.20363014861,0.0472116063962,0.41220708095,0.334162856578,0.438,0.45,0,0,2,329,1
0.232173023009,0.0737661537014,0.228419998359,1.0475809432,0.342,0.45,3,3,2,330,1
0.333039330253,1.14512698442,0.241856917662,0.272044981782,0.386,0.45,1,1,2,331,1
0.215054060581,0.136899664097,1.08950501512,0.53989032978,0.319,0.45,2,2,2,332,1
1.15304096201,0.313469376669,0.304801975395,0.1902064054,0.334,0.45,1,0,-1,333,1
0.147470728221,0.13753498605,0.443513471662,1.04232128107,0.37,0.45,3,3,2,334,1
0.186680439625,0.0554481487181,1.10231319689,0.215663712846,0.458,0.45,2,2,1,335,1
1.02292109853,0.123235579943,0.264709901479,0.171630317811,0.397,0.45,0,0,2,336,1
0.163468511013,0.0854812930207,1.05810459701,0.657163038375,0.448,0.45,2,2,2,337,1
0.262142798863,1.17827211068,0.25950989035,0.0395728590989,0.544,0.45,1,1,1,338,1
1.21102520776,0.228017129893,0.291673166303,0.181201814575,0.4,0.45,0,0,2,339,1
0.199484891895,0.131124608656,0.49431555454,1.08453482361,0.374,0.45,3,3,2,340,1
1.10046450388,0.071923170491,0.181499066149,0.336688520582,0.335,0.45,0,0,2,341,1
1.05973958862,0.0960673778897,0.413426769035,0.225220229792,0.394,0.45,1,0,-1,342,1
0.108124445972,0.15000176729,1.09845904997,0.430012495809,0.373,0.45,3,2,-1,343,1
1.04975624793,0.0701270563248,0.0889346269818,0.192854111153,0.406,0.45,1,0,-1,344,1
0.123975856422,0.0660768138615,1.1853905639,0.378302888722,0.409,0.45,2,2,2,345,1
0.120290132007,0.0645768728874,0.312211634174,1.08708678727,0.336,0.45,3,3,2,346,1
0.11741484744,0.091287560231,1.10200564007,0.629966825936,0.442,0.45,2,2,2,347,1
1.24046479659,0.166092411827,0.361012215095,0.418478010409,0.509,0.45,0,0,1,348,1
0.157479386989,0.0925525111918,0.421665633777,1.00322295826,0.402,0.45,2,3,-1,349,1
0.157941578725,0.0574220799695,1.00729623258,0.184731538791,0.377,0.45,3,2,-1,350,1
0.184677378003,1.00790027918,0.229735493646,0.353599321893,0.549,0.45,1,1,1,351,1
1.17911873406,0.0903169304104,0.269503971668,0.186923749726,0.437,0.45,0,0,2,352,1
0.316788509328,1.23467660687,0.333049850278,0.23825776542,0.513,0.45,1,1,1,353,1
0.146982008836,0.0792879371749,0.335993657215,1.10178062633,0.347,0.45,3,3,2,354,1
1.3027953621,0.275544850244,0.28376891886,0.136159033591,0.424,0.45,0,0,2,355,1
0.117153366726,0.108246893227,0.336831646747,1.17092657553,0.368,0.45,3,3,2,356,1
0.26267049974,1.06612469925,0.400391063522,0.228029384127,0.423,0.45,2,1,-1,357,1
0.115995748192,1.10867495606,0.276854967247,0.243273520033,0.414,0.45,1,1,2,358,1
0.116042286399,0.0695603014104,1.21077364616,0.63907020871,0.395,0.45,2,2,2,359,1
1.88213058153,0.268476122577,0.229582394105,0.247209443154,0.388,0.45,0,0,2,360,1
0.144468704859,0.391933762145,1.90236605005,0.427186995019,0.492,0.45,2,2,1,361,1
0.192971945779,0.0783757694134,0.380032501457,1.06570674471,0.496,0.45,3,3,1,362,1
1.1674899686,0.129020356445,0.171113161286,0.220082079743,0.429,0.45,0,0,2,363,1
0.504238532143,1.20155105522,0.361841241018,0.382125120366,0.502,0.45,1,1,1,364,1
0.115622306279,0.0565207795438,0.286171727785,1.12154932582,0.403,0.45,3,3,2,365,1
0.114911727253,1.00781826322,0.300398545573,0.190702358156,0.483,0.45,1,1,1,366,1
1.1419462947,0.15285882879,0.256549252465,0.248048299418,0.436,0.45,0,0,2,367,1
0.128776025033,0.180247452731,1.04706969415,0.453473547063,0.431,0.45,2,2,2,368,1
0.127753705425,1.02587815831,0.243626277712,0.217803867511,0.381,0.45,1,1,2,369,1
0.136496128239,0.103244789534,1.09293079936,0.273138062411,0.32,0.45,2,2,2,370,1
1.23746389179,0.161292158189,0.232432341328,0.346188208222,0.413,0.45,0,0,2,371,1
0.258847418869,0.273235965216,0.300549212208,1.15533370216,0.413,0.45,3,3,2,372,1
0.344528534023,0.884890743442,1.06007659707,0.775081383155,0.465,0.45,2,2,1,373,1
0.161114675924,0.0758763379592,0.741261380292,1.07025120503,0.487,0.45,3,3,1,374,1
0.143289233436,1.02193334021,0.144894129761,0.124430947713,0.482,0.45,1,1,1,375,1
1.24200045576,0.108567364468,0.195830558473,0.249918787504,0.361,0.45,0,0,2,376,1
0.197752599419,1.07456526379,0.359256971507,0.320197466866,0.425,0.45,1,1,2,377,1
0.134008944497,0.0471127797044,0.401019521812,1.15948452309,0.427,0.45,3,3,2,378,1
1.09036870833,0.0836829439402,0.246231826217,0.471786785678,0.494,0.45,0,0,1,379,1
0.163155005398,0.0732123912177,0.23322004798,1.0497589781,0.406,0.45,2,3,-1,380,1
1.20745052683,0.0381470764725,0.152138266847,0.23261442912,0.466,0.45,0,0,1,381,1
0.120918407848,0.0628808908915,0.198591781968,1.21977861766,0.362,0.45,3,3,2,382,1
0.157834688975,0.140614631728,1.03753617122,0.492172056063,0.499,0.45,2,2,1,383,1
0.145663623985,1.15979065707,0.263571623743,0.155788062059,0.442,0.45,1,1,2,384,1
0.174929595485,0.0545630024642,1.10408248501,0.664128377738,0.441,0.45,2,2,2,385,1
0.147653199476,0.0774959041748,0.210616846494,1.10073013359,0.489,0.45,3,3,1,386,1
1.08538433545,0.0587771345886,0.326445133354,0.36185599161,0.495,0.45,0,0,1,387,1
0.157607490157,1.02317383984,0.231667021448,0.128899263855,0.509,0.45,1,1,1,388,1
0.138938408018,0.111167786734,0.416839489164,1.03635684989,0.437,0.45,3,3,2,389,1
0.259843275842,1.09201100738,0.294477713096,0.113355215839,0.452,0.45,1,1,1,390,1
1.03323610621,0.115027056751,0.312769500928,0.336941058327,0.354,0.45,0,0,2,391,1
0.131770716204,0.0646672246711,0.731002800496,1.10915370593,0.387,0.45,3,3,2,392,1
0.174882206177,0.0928661854447,1.13764426955,0.462685451056,0.441,0.45,2,2,2,393,1
0.157686927023,1.24165408512,0.325688289665,0.261120217949,0.477,0.45,1,1,1,394,1
0.161525023196,0.128513160001,0.326473564504,1.0440342951,0.428,0.45,2,3,-1,395,1
1.0941620146,0.0301975345038,0.258619000266,0.396829645636,0.49,0.45,0,0,1,396,1
0.150742614689,0.0489563961956,1.018989235,0.403992539972,0.38,0.45,2,2,2,397,1
0.14999621169,0.0539692006825,0.207804670257,1.16078090315,0.341,0.45,3,3,2,398,1
1.13571481201,0.0600594120815,0.224251539063,0.361324343687,0.433,0.45,0,0,2,399,1
1.04825978539,0.0527164544922,0.245317114195,0.480528394512,0.404,0.45,1,0,-1,400,1
1.18856741847,0.198286153913,0.304256703099,0.418612870599,0.44,0.45,0,0,2,401,1
0.152896727853,0.0622938955812,0.201252179284,1.01961244927,0.376,0.45,3,3,2,402,1
0.140860612135,1.0212940502,0.620415263105,0.184218302549,0.594,0.45,1,1,1,403,1
0.213465102646,0.0938928735975,0.308856986682,1.13935804227,0.532,0.45,3,3,1,404,1
0.167529739199,0.0900761244166,1.1829255173,0.482979654145,0.682,0.45,2,2,1,405,1
0.162727387951,1.14230581904,0.167547584381,0.20436439859,0.423,0.45,1,1,2,406,1
0.188416654536,0.0857507753458,1.04762301152,0.496507358271,0.441,0.45,2,2,2,407,1
1.00735090104,0.288052923711,0.2435567117,0.408988315839,0.399,0.45,0,0,2,408,1
0.180856659553,0.0758710160428,1.05297605801,0.506926180439,0.419,0.45,2,2,2,409,1
0.211495640658,1.15355319181,0.34635130282,0.401137068429,0.457,0.45,1,1,1,410,1
1.1064604388,0.182699901626,0.283330597747,0.420412057306,0.396,0.45,0,0,2,411,1
0.179013507231,0.0508911745684,0.508869521378,1.09840475345,0.364,0.45,3,3,2,412,1
0.916017270922,1.07035288702,0.189923687457,0.253119282849,0.467,0.45,1,1,1,413,1
0.161585830898,0.0547545210969,0.192908030967,1.00288183704,0.365,0.45,3,3,2,414,1
1.02077982923,0.0949595136352,0.22478729112,0.364056789975,0.335,0.45,0,0,2,415,1
0.219832331187,0.0577986792278,1.02653973866,0.829911656129,0.422,0.45,2,2,2,416,1
0.254937991356,0.157225787863,0.255673003532,1.04370276785,0.407,0.45,3,3,2,417,1
0.240749893451,0.0921774893171,1.12884596853,0.577927649562,0.454,0.45,2,2,1,418,1
1.08702246025,0.120974390112,0.209411224214,0.335279445892,0.418,0.45,0,0,2,419,1
0.302009021449,1.1074583741,0.298279353304,0.441741978492,0.382,0.45,1,1,2,420,1
0.179806243435,0.0708783830622,1.01098601272,0.50028903894,0.282,0.45,2,2,2,421,1
0.766406158834,1.21658032711,0.219720421562,0.32369455693,0.38,0.45,1,1,2,422,1
0.172073872358,0.0624859030361,0.17452472173,1.15287677204,0.376,0.45,3,3,2,423,1
1.07015297364,0.148140651169,0.175077739675,0.449546073221,0.384,0.45,0,0,2,424,1
0.20151187465,0.12002155301,0.359342921975,1.13988687542,0.409,0.45,3,3,2,425,1
0.458459466159,1.16689304634,0.367059780119,0.459776124235,0.402,0.45,1,1,2,426,1
1.269465071,0.122291718761,0.230260790207,0.42062241767,0.424,0.45,0,0,2,427,1
0.262375376758,0.096885252304,1.15709625605,0.769797921372,0.331,0.45,2,2,2,428,1
0.341927770743,0.0738130039677,0.193403398458,1.07484716878,0.268,0.45,3,3,2,429,1
0.268494918168,0.192858155519,1.02430413169,0.643084924659,0.407,0.45,2,2,2,430,1
1.15296938726,0.187291951115,0.192148881489,0.399741854943,0.392,0.45,0,0,2,431,1
0.601894927465,1.20067859353,0.350707336309,0.50434013919,0.401,0.45,1,1,2,432,1
0.29274872325,0.0631403510064,1.11121675453,0.529109144154,0.352,0.45,2,2,2,433,1
0.326466068063,1.08576019158,1.0655813023,0.44858930117,0.446,0.45,1,1,2,434,2
0.19688389342,0.0716297693904,1.04485878582,0.360805827294,0.19,0.45,3,2,-1,435,2
0.195866234779,0.0558858587044,0.173705850273,1.02229327962,0.0530000000002,0.45,2,3,-1,436,2
1.12251019098,0.275288394022,0.121745304995,0.343998013509,0.371,0.45,0,0,2,437,2
0.204864851219,0.0969163686073,0.257290105532,1.10411585774,0.356,0.45,3,3,2,438,2
1.11734888026,0.229312377524,0.172323708361,0.340832322061,0.403,0.45,0,0,2,439,2
0.180325574793,0.0763026581262,1.4545654002,0.575609778993,0.399,0.45,2,2,2,440,2
0.240277050909,1.12518490032,0.242611460721,0.457956133584,0.32,0.45,1,1,2,441,2
0.273609799788,0.0937473045906,1.141263101,0.64488014851,0.369,0.45,2,2,2,442,2
0.194779721617,0.0730220320845,0.28207702989,1.17665654793,0.291,0.45,3,3,2,443,2
0.322032605471,1.0882146926,0.261021335028,0.412491313762,0.383,0.45,1,1,2,444,2
1.0982768021,0.193511234807,0.245224439169,0.485201442958,0.345,0.45,0,0,2,445,2
0.400197119675,1.20386808038,0.282832722405,0.428900725153,0.447,0.45,1,1,2,446,2
0.189778440514,0.103922014741,1.01215373029,0.467621036946,0.357,0.45,2,2,2,447,2
1.04675039144,0.282834270521,0.207816666696,0.492675098237,0.396,0.45,0,0,2,448,2
0.221254599074,0.0679032963707,0.190151218576,2.1124307293,0.39,0.45,3,3,2,449,2
1.08209742817,0.272380953181,0.153647956235,0.376569859092,0.356,0.45,0,0,2,450,2
0.213524039569,0.0758286080428,1.00121270312,0.668474955321,0.41,0.45,2,2,2,451,2
0.252736972511,0.0810207257592,0.229890690047,1.0587742203,0.311,0.45,3,3,2,452,2
0.489353560092,1.02659816769,0.231083083953,0.397893474012,0.297,0.45,1,1,2,453,2
1.05770935263,0.187162030082,0.231855748206,0.485125195826,0.448,0.45,0,0,2,454,2
1.06784179096,0.131339095441,0.205235577909,0.508909934934,0.476,0.45,1,0,-1,455,2
0.225109466266,0.0618802344072,0.236217429144,1.04288367956,0.372,0.45,3,3,2,456,2
0.241506712787,0.169004002893,1.08221543215,0.420492247813,0.518,0.45,2,2,1,457,2
0.326300236683,1.05331435507,0.182934958983,0.37545185482,0.385,0.45,1,1,2,458,2
0.263070107253,0.110184195325,0.604190468252,1.04501892918,0.369,0.45,3,3,2,459,2
0.236320218719,0.0976461442231,0.285276738944,1.00394945712,0.456,0.45,2,3,-1,460,2
1.13002368498,0.0486910579322,0.210529092577,0.460024607065,0.483,0.45,0,0,1,461,2
0.243483062223,0.177387447322,1.13367906561,0.292049739486,0.418,0.45,2,2,2,462,2
0.212268890498,0.0907901095936,0.253061612563,1.06927410244,0.357,0.45,3,3,2,463,2
1.11683725895,0.0724707600227,0.159200686636,0.444969202465,0.342,0.45,0,0,2,464,2
0.364349714148,1.11751625019,0.337388008597,0.458602437801,0.402,0.45,1,1,2,465,2
0.185845621597,0.0856394504756,1.11079350287,0.41882703082,0.376,0.45,2,2,2,466,2
0.232957908418,1.00274751426,0.218415352185,0.448137355977,0.39,0.45,1,1,2,467,2
1.07628930166,0.202864166185,0.212160553326,0.4963847613,0.445,0.45,0,0,2,468,2
0.231418641103,0.112388945391,0.394292007155,1.03539910166,0.358,0.45,3,3,2,469,2
0.280463171184,1.0103558057,0.492839321932,0.38960917014,0.377,0.45,1,1,2,470,2
1.15694116381,0.0678564222812,0.200636808371,0.401363892124,0.376,0.45,0,0,2,471,2
0.19562157763,0.103407578787,1.03622092955,0.457750543461,0.367,0.45,2,2,2,472,2
0.200933065812,0.0513458040305,0.236504746853,1.16596249852,0.291,0.45,3,3,2,473,2
1.05078524767,0.136779068057,0.120347101734,0.397250312061,0.422,0.45,0,0,2,474,2
0.247687033781,0.054002050168,0.301718855038,1.02992795423,0.336,0.45,3,3,2,475,2
0.315802290762,0.048178119709,1.09566680203,0.428601892683,0.434,0.45,2,2,2,476,2
1.0742043532,0.13389748209,0.141012357705,0.414193924244,0.411,0.45,0,0,2,477,2
0.436335158924,1.02184673301,0.275692044679,0.364978047356,0.401,0.45,1,1,2,478,2
0.213163740225,0.0903174802436,1.0980749792,0.528527322806,0.299,0.45,2,2,2,479,2
0.491704518568,1.13538347905,0.194641442376,0.550629417945,0.385,0.45,1,1,2,480,2
0.304888763182,0.0752493415809,0.229354976281,1.13190350727,0.347,0.45,3,3,2,481,2
0.31556749196,1.05164618527,0.21193447104,0.373607128977,0.344,0.45,1,1,2,482,2
0.231648853054,0.0825942806338,0.300218048027,1.09984349136,0.555,0.45,3,3,1,483,2
0.201738185163,0.0830612769338,0.566647939463,1.00946928183,0.5,0.45,2,3,-1,484,2
1.23754631049,0.0644324149199,0.12465217861,0.31896856549,0.492,0.45,0,0,1,485,2
0.153995219413,0.0569249631609,0.337875142276,1.29084559567,0.367,0.45,3,3,2,486,2
1.12884984951,0.152159610378,0.181004178997,0.366658721413,0.41,0.45,0,0,2,487,2
0.207781356079,0.0724473832675,1.76088272067,0.463356240044,0.457,0.45,2,2,1,488,2
1.16344052269,0.0488504479209,0.367085199486,0.469781289186,0.454,0.45,1,0,-1,489,2
0.150575254321,0.0449946250628,1.70958981336,0.598337135799,0.533,0.45,2,2,1,490,2
0.161386988882,0.0499340329373,0.492402001336,3.54652930493,0.445,0.45,3,3,2,491,2
0.161651735761,1.0294627084,0.161088162301,0.324273284643,0.433,0.45,1,1,2,492,2
1.01219130351,0.184559207743,0.214121600903,0.393058263061,0.259,0.45,0,0,2,493,2
0.51513837226,1.13814901582,0.382290511151,0.252540914953,0.492,0.45,1,1,1,494,2
0.176048284723,0.0552030692474,1.08664451055,0.938885767723,0.338,0.45,2,2,2,495,2
0.171235767559,1.14148769403,0.300936471087,0.219009371708,0.425,0.45,0,1,-1,496,2
0.167558636169,0.0629301537576,0.101265318311,1.0913388537,0.337,0.45,3,3,2,497,2
1.25203339104,0.0625310336097,0.0842526247124,0.313798981653,0.329,0.45,0,0,2,498,2
0.173640950808,0.0612671210649,1.04321737316,0.363095824897,0.39,0.45,2,2,2,499,2
0.250166595982,0.0791165824412,0.193553143985,1.05893598584,0.407,0.45,3,3,2,500,2
0.353012400094,0.272313037382,1.23306318647,0.62471279452,0.422,0.45,2,2,2,501,2
1.00544085134,0.432348549068,0.173161025737,0.24907088956,0.476,0.45,1,0,-1,502,2
0.187931990051,0.0547002262452,0.145088587681,0.458348043858,0.7,0.45,3,-1,0,504,2
0.177137151199,0.157007558509,0.154340391833,0.323724427238,0.7,0.45,1,-1,0,505,2
0.374612681872,0.0615403488404,0.177932044944,0.370789505906,0.7,0.45,0,-1,0,506,2
0.35644715145,0.114510180063,0.280944876136,0.40003113079,0.7,0.45,1,-1,0,507,2
1.21214289398,0.121279276193,0.230993674309,0.419787190827,0.433,0.45,0,0,2,507,2
0.207598872858,0.0658719225026,1.01089739114,0.973259363685,0.537,0.45,3,2,-1,508,2
0.232350491021,0.0557603960352,1.14511207694,0.28449777803,0.575,0.45,2,2,1,509,2
1.12197785658,0.0488333304087,0.0571246245145,0.41544508057,0.451,0.45,0,0,1,510,2
0.220907137586,0.0444906222147,1.13989975558,0.471541161015,0.355,0.45,2,2,2,511,2
0.252987017224,0.0478809453794,0.220748142763,1.03514384967,0.359,0.45,3,3,2,512,2
1.20512544353,0.0476289957834,0.0958359759542,0.286915347236,0.439,0.45,0,0,2,513,2
1.25132877711,0.0608862688976,0.119219334717,0.463535018031,0.471,0.45,1,0,-1,514,2
0.160041419174,0.0699200770579,1.07739986405,0.798536326985,0.4,0.45,2,2,2,515,2
0.155609920272,1.03603271859,0.215279767136,0.455298720097,0.46,0.45,1,1,1,516,2
0.239160116588,0.108820820617,0.195911538392,2.06288040848,0.432,0.45,3,3,2,517,2
0.319461309915,1.14564505134,0.218504488353,0.380975062099,0.482,0.45,1,1,1,518,2
0.158606631233,0.08351391081,0.199234310803,1.04406644797,0.354,0.45,3,3,2,519,2
1.20751200951,0.166928603432,0.152280838908,0.364159844517,0.335,0.45,0,0,2,520,2
0.181331511746,0.102305245299,1.05961730149,0.47323538134,0.375,0.45,2,2,2,521,2
1.04764014141,0.089693349143,0.165719049847,0.438473195724,0.389,0.45,0,0,2,522,2
0.198268791549,0.0590278882262,0.273486500135,1.05933151424,0.331,0.45,3,3,2,523,2
0.214576092368,0.923218412438,1.09728007068,0.385353147821,0.437,0.45,2,2,2,524,2
0.179087250241,0.0632606107016,0.163831220315,1.20681244205,0.405,0.45,3,3,2,525,2
1.12783495168,0.0684942927639,0.1268713918,0.393305397532,0.371,0.45,1,0,-1,526,2
0.131036385141,0.0574419320802,0.15695624976,1.0837293702,0.32,0.45,2,3,-1,527,2
0.137341401113,0.0488002709193,0.119851068231,0.238880990221,0.7,0.45,1,-1,0,529,2
0.514645075066,0.356523366875,0.292438714459,0.47305030616,0.7,0.45,0,-1,0,530,2
0.358551595487,0.385760637266,0.364547658895,0.485362759581,0.7,0.45,1,-1,0,531,2
0.179712417499,0.190127638211,0.423144128673,1.05338092234,0.562,0.45,3,3,1,531,2
0.203084839359,1.09258332225,0.38777678357,0.362667815632,0.512,0.45,2,1,-1,532,2
1.07891951154,0.0561473448338,0.119043518979,0.359818878008,0.458,0.45,0,0,1,533,2
0.152173177897,0.0533208961467,0.234170600374,1.06158344249,0.366,0.45,3,3,2,534,2
1.20093546767,0.207320300809,0.185924896566,0.403130246079,0.431,0.45,0,0,2,535,2
0.171529366735,0.0617158796041,1.03087844055,0.368318165123,0.353,0.45,2,2,2,536,2
0.244167848957,1.06520858459,0.259165213918,0.324515507736,0.481,0.45,1,1,1,537,2
0.149938875393,0.0469118972903,1.14048098712,0.415626763198,0.404,0.45,2,2,2,538,2
0.141789982519,0.0594628885331,0.341365625259,1.10337993591,0.314,0.45,3,3,2,539,2
0.150436774093,1.08966476215,0.312881713912,0.354586985171,0.389,0.45,1,1,2,540,2
1.03736361688,0.150387229553,0.186865563872,0.379499340511,0.283,0.45,0,0,2,541,2
0.176802302423,0.0921866315636,1.05994580093,0.404193937825,0.335,0.45,1,2,-1,542,2
0.15365695034,0.0626499375305,0.353141665039,0.423630487808,0.7,0.45,2,-1,0,544,2
0.156028469606,0.0625548139819,0.311294259256,1.2224528392,0.4,0.45,3,3,2,544,2
1.17415393452,0.206675709341,0.196646694797,0.418696591777,0.41,0.45,0,0,2,545,2
0.170634354536,0.0608756697071,0.341317621653,1.06444918893,0.407,0.45,3,3,2,546,2
0.184220227583,0.0602023605844,1.0767142431,0.320247303861,0.433,0.45,2,2,2,547,2
1.12632143035,0.207327659476,0.185059998317,0.392811353772,0.457,0.45,0,0,1,548,2
0.178471059433,0.0444218060338,1.1205191059,0.546088688176,0.39,0.45,2,2,2,549,2
1.00258645405,0.0567212310982,0.157953746868,0.448412126265,0.342,0.45,1,0,-1,550,2
1.04410530358,0.0828320897505,0.235582955484,0.455072150836,0.594,0.45,0,0,1,551,2
0.653778116355,1.05919747052,0.480893220052,0.45661866468,0.473,0.45,1,1,1,552,2
0.167717797446,0.0532123878503,0.295173320903,1.19822033279,0.359,0.45,3,3,2,553,2
0.270302972022,2.39761981093,0.442996946683,0.4028770142,0.454,0.45,1,1,1,554,2
0.165285219713,0.0468925724234,0.210867913799,1.45285600214,0.347,0.45,3,3,2,555,2
1.28887811456,0.199053559801,0.246757293737,0.437345912992,0.379,0.45,0,0,2,556,2
0.139013410721,0.0933061848961,1.16364433699,0.893329214825,0.396,0.45,2,2,2,557,2
0.141089273776,0.184966657321,0.361266506902,1.02179105727,0.459,0.45,3,3,1,558,2
0.163347918581,0.953891084325,1.06237098149,0.378644399817,0.538,0.45,2,2,1,559,2
1.02804927669,0.113259824509,0.18633262921,0.474874939704,0.449,0.45,0,0,2,560,2
0.155445483877,0.0541548889644,0.260900053469,1.0677318126,0.396,0.45,3,3,2,561,2
0.631658345007,1.14134590262,0.401387215105,0.579638493228,0.38,0.45,1,1,2,562,2
1.03633731319,0.127462472113,0.312582755155,0.44525028833,0.327,0.45,0,0,2,563,2
1.00090598131,0.82838426207,0.307423408439,0.382183987303,0.384,0.45,1,0,-1,564,2
0.167998758942,0.0827793181125,1.08093724279,0.409347758754,0.416,0.45,2,2,2,565,2
0.169211896943,1.31115771496,0.262953071481,0.476041769511,0.381,0.45,1,1,2,566,2
0.163298723762,0.3881950972,1.07064647438,0.826876599971,0.39,0.45,2,2,2,567,2
1.03673858891,0.24524753591,0.179147844211,0.478233699579,0.502,0.45,0,0,1,568,2
0.171543202182,0.0569050157413,0.248534676463,1.39278730661,0.432,0.45,3,3,2,569,2
0.222836634552,0.137061517641,1.11376405694,0.492556983428,0.411,0.45,2,2,2,570,2
0.186555992155,0.094100245329,0.426827438742,2.39975663173,0.489,0.45,3,3,1,571,2
1.12342043803,0.0899073796264,0.376904398699,0.448932305446,0.441,0.45,0,0,2,572,2
0.290613132534,1.16983892058,0.553600469381,0.448581919814,0.476,0.45,1,1,1,573,2
1.07457882506,0.0169034071919,0.229631609675,0.631918369929,0.481,0.45,0,0,1,574,2
0.128035023803,0.0500733825872,0.603253135723,1.03457287973,0.385,0.45,2,3,-1,575,2
0.213939597962,1.1246757889,0.330694742531,0.222409209195,0.491,0.45,1,1,1,576,2
0.18149565708,0.0564691132311,0.318024982577,1.12848168544,0.516,0.45,3,3,1,577,2
0.179079491461,1.12837749669,0.205617260885,0.396950243481,0.5,0.45,1,1,1,578,2
1.11484533847,0.0518012882791,0.22924282146,0.468107592181,0.493,0.45,0,0,1,579,2
0.170597853523,0.0588495021626,0.259409819133,1.08720384596,0.443,0.45,3,3,2,580,2
0.291408702164,0.110028385001,0.387117889848,1.13372565171,0.41,0.45,2,3,-1,581,2
0.178127040302,0.0649287156191,0.955956911317,1.26046853209,0.458,0.45,3,3,1,582,2
1.03080895238,0.0563855824555,0.129357207397,0.562781726278,0.479,0.45,0,0,1,583,2
0.185632418823,0.0571589094442,0.0820376547368,1.00777360877,0.364,0.45,2,3,-1,584,2
0.231774190166,1.0686694977,0.241682318264,0.180912989838,0.437,0.45,1,1,2,585,2
0.182033084387,0.0831570546893,1.05716505227,0.284102437129,0.341,0.45,2,2,2,586,2
1.17501605426,0.272313556913,0.181129167234,0.318497082162,0.415,0.45,0,0,2,587,2
1.05523870614,0.0726584040499,0.25728232675,0.46507899552,0.361,0.45,1,0,-1,588,2
0.135754153186,0.0391334646257,0.174607429371,1.02046304262,0.326,0.45,3,3,2,589,2
0.141910249352,1.15940237808,0.27381762547,0.239610125278,0.326,0.45,1,1,2,590,2
0.148171138916,0.0936483138816,1.06037137404,0.754217160936,0.373,0.45,3,2,-1,591,2
0.175459036261,0.195382112644,1.02961060138,0.496906581298,0.475,0.45,2,2,1,592,2
1.09033606731,0.0537403600501,0.170683965458,0.539280532168,0.423,0.45,0,0,2,593,2
0.191562986522,0.0432185656803,1.01042425864,0.386809157118,0.319,0.45,2,2,2,594,2
0.166445143675,0.0465215844388,0.286169610066,1.11527829015,0.367,0.45,3,3,2,595,2
1.66957635661,0.176076478536,0.117922243066,0.329284533752,0.518,0.45,0,0,1,596,2
0.111945076052,0.0514170643018,0.178958423551,2.94974887219,0.482,0.45,3,3,1,597,2
0.232113564718,1.68744972019,0.245880955567,0.359613521499,0.459,0.45,1,1,1,598,2
0.132057152456,0.0500402771827,1.04334772916,0.436220913016,0.338,0.45,2,2,2,599,2
0.218902247337,1.0817953763,0.158927681132,0.371945833434,0.444,0.45,1,1,2,600,2
1.01443460592,0.0394748807554,0.124784949222,0.389160491381,0.429,0.45,0,0,2,601,2
0.127697852333,1.00268556414,0.293324461768,0.409367186727,0.408,0.45,1,1,2,602,2
0.156726302842,0.0625076372488,0.202982092285,1.00490941464,0.364,0.45,3,3,2,603,2
1.03196885694,0.233735127398,0.219439159335,0.386989234813,0.443,0.45,0,0,2,604,2
0.199776416963,0.0695491015754,1.03230029399,0.479194357711,0.365,0.45,2,2,2,605,2
1.0791214475,0.0883435931777,0.273572024224,0.497841565911,0.34,0.45,0,0,2,606,2
0.181285902777,0.0778709854053,0.479735026411,1.08114056086,0.357,0.45,3,3,2,607,2
0.227153037579,0.0895470665868,1.19943410752,0.502149550304,0.43,0.45,2,2,2,608,2
0.293864219643,1.07089408774,0.26481357319,0.512721556447,0.36,0.45,1,1,2,609,2
0.251993967774,0.117983932261,0.324916538676,1.07405768001,0.33,0.45,2,3,-1,610,2
0.174708189208,0.0561684511728,0.757428523982,1.03612797675,0.431,0.45,3,3,2,611,2
0.198821827116,1.01732067804,0.275223640324,0.346537419491,0.45,0.45,1,1,1,612,2
1.08428370181,0.057175942716,0.194038151516,0.519990062928,0.381,0.45,0,0,2,613,2
0.184745865031,0.0651289872848,1.06668706916,0.382235363068,0.458,0.45,1,2,-1,614,2
0.153089145279,0.0741209050239,0.222115801371,1.25918090293,0.407,0.45,3,3,2,615,2
0.182156689115,0.0802594064626,1.04504837981,0.620769807469,0.453,0.45,2,2,1,616,2
1.03198043678,0.184209174073,0.20875932652,0.432602705475,0.369,0.45,0,0,2,617,2
0.170144520432,0.0918172578996,0.364705942953,1.01801786974,0.388,0.45,3,3,2,618,2
1.07737232089,0.0636787872132,0.170924632171,0.393718676021,0.336,0.45,0,0,2,619,2
0.206020561256,0.0488665126082,1.10375541943,0.379143706991,0.307,0.45,2,2,2,620,2
0.286816333635,0.0655464929892,0.13484774523,1.08660527788,0.38,0.45,3,3,2,621,2
0.370301291511,1.14449330148,0.131742633744,0.319897147489,0.423,0.45,1,1,2,622,2
1.11999238122,0.149972553159,0.174322685798,0.447727769264,0.347,0.45,0,0,2,623,2
0.713963762861,1.16275613165,0.460252587927,0.294636271585,0.435,0.45,1,1,2,624,2
0.178644774283,0.0736132874222,1.07478486521,0.461636382891,0.357,0.45,2,2,2,625,2
0.183331137937,1.28626307672,0.179521069022,0.438392874693,0.41,0.45,1,1,2,626,2
0.267864328804,0.125138056635,0.207963882998,1.03844451008,0.332,0.45,3,3,2,627,2
0.18196658348,0.163713339483,1.0527796757,0.495584840187,0.382,0.45,2,2,2,628,2
1.02763781491,0.0677273490587,0.116437463518,0.480297448173,0.347,0.45,0,0,2,629,2
0.185050172614,0.0730733356714,0.214447865099,1.03575287117,0.372,0.45,3,3,2,630,2
1.04122076,0.10621382365,0.174450421487,0.454868546058,0.33,0.45,0,0,2,631,2
0.190359417977,0.0684649809542,1.06580724726,0.484819854008,0.331,0.45,2,2,2,632,2
1.06470966361,0.121383663761,0.167121135844,0.536231827584,0.295,0.45,1,0,-1,633,2
1.0626324273,0.0700746250627,0.130538258363,0.400500855546,0.33,0.45,0,0,2,634,2
0.144175526678,1.17511670456,0.306026987373,0.414112227825,0.366,0.45,1,1,2,635,2
0.151049587561,0.0624791968026,1.05000928234,0.407147736578,0.299,0.45,2,2,2,636,2
0.158537268199,0.0492075761438,0.657537359162,1.19317346096,0.313,0.45,3,3,2,637,2
0.180643838385,1.19028192775,0.229925821901,0.152577126107,0.433,0.45,1,1,2,638,2
1.26174800014,0.172090350939,0.180538541671,0.44183904941,0.436,0.45,0,0,2,639,2
0.142448748617,0.100421167724,1.11613057678,0.507678684991,0.354,0.45,2,2,2,640,2
0.190414604596,0.083979230118,0.283592528469,1.02262486927,0.287,0.45,3,3,2,641,2
1.14529873903,0.210577715253,0.146190861473,0.303984084486,0.456,0.45,0,0,1,642,2
0.166451263409,0.0562771386941,0.139854055196,1.06171663698,0.329,0.45,3,3,2,643,2
0.228294616859,0.103110939296,1.04082727858,0.521954370675,0.418,0.45,2,2,2,644,2
0.24907981638,1.10061180917,0.312102744652,0.488925347302,0.379,0.45,1,1,2,645,2
0.236156252522,0.056185322508,1.03919999024,0.467632784931,0.418,0.45,2,2,2,646,2
1.03988208551,0.156587262523,0.214273233007,0.470563313635,0.412,0.45,0,0,2,647,2
1.0471289775,0.117992826852,0.32010794966,0.543997219541,0.417,0.45,1,0,-1,648,2
0.16637256929,0.0570026776744,0.279962803236,1.09474864314,0.387,0.45,3,3,2,649,2
0.215975125395,1.08748265862,0.210188574102,0.419938726347,0.43,0.45,1,1,2,650,2
0.209030527536,1.19411259217,0.243389746019,0.290313829972,0.587,0.45,1,1,1,651,3
0.208082781378,0.0888457461468,1.18444294636,0.364632860865,0.364,0.45,2,2,2,652,3
0.296980049258,0.089036624057,0.262238094582,1.25265460391,0.27,0.45,3,3,2,653,3
1.03112784614,0.137933446391,0.281726453038,0.473194060712,0.343,0.45,0,0,2,654,3
0.170073255892,0.0849837047311,1.21908678463,0.706220336021,0.383,0.45,2,2,2,655,3
0.470762791127,1.17401184769,0.276405977797,0.403994302769,0.443,0.45,0,1,-1,656,3
0.187290197219,0.0559949995773,0.0606566281832,1.11752966531,0.369,0.45,3,3,2,657,3
0.276943405254,0.0735226564143,1.68397152074,0.59143485042,0.507,0.45,2,2,1,658,3
0.37284865161,0.0570194740933,1.02056252469,0.423764564729,0.412,0.45,1,2,-1,659,3
1.23314161237,0.0617843157303,0.185516982588,0.45952801773,0.325,0.45,0,0,2,660,3
1.0835601966,0.0555417473375,0.148444157977,0.403690030571,0.376,0.45,1,0,-1,661,3
0.14663377725,0.0613901025718,0.277775279908,1.20425000002,0.358,0.45,3,3,2,662,3
0.153949144131,2.48113973248,0.264090511153,0.123484924521,0.367,0.45,1,1,2,663,3
1.06990143363,0.158527707886,0.235014199381,0.373564306814,0.378,0.45,0,0,2,664,3
0.154741880709,0.0921384063375,1.08430415653,0.473253482955,0.363,0.45,2,2,2,665,3
0.179616504921,0.155928171515,0.383364776777,1.12562297584,0.342,0.45,3,3,2,666,3
0.206205158865,0.0739861418576,1.05708245742,0.415152485703,0.382,0.45,2,2,2,667,3
1.00625461665,0.273388994938,0.220132190822,0.483190640693,0.408,0.45,0,0,2,668,3
0.190123704544,0.0897551467132,0.247578217498,1.03738774724,0.362,0.45,3,3,2,669,3
0.316748650652,1.4656424423,0.637358031286,0.253041261778,0.563,0.45,1,1,1,670,3
0.196817556778,0.0791569493235,0.317440900961,1.86655105918,0.468,0.45,3,3,1,671,3
1.11534092598,0.0554494952037,0.111964399411,0.354162977892,0.426,0.45,0,0,2,672,3
0.239608406421,1.04141399474,0.336067579221,0.449251325225,0.397,0.45,1,1,2,673,3
0.152226848903,0.0859410977854,1.11682164238,0.432836116362,0.345,0.45,2,2,2,674,3
1.02807355988,0.441641962744,0.224020749255,0.368768006825,0.38,0.45,1,0,-1,675,3
0.173376995187,0.0919623373634,1.08565335745,0.526948072355,0.439,0.45,2,2,2,676,3
1.11979450162,0.267097810073,0.232419103001,0.380653602504,0.491,0.45,0,0,1,677,3
0.210875016289,0.116124043362,0.406750580375,1.15205583893,0.465,0.45,3,3,1,678,3
1.06674180199,0.126412321249,0.238252157403,0.493794945189,0.383,0.45,0,0,2,679,3
0.213167660087,0.0729112171881,0.759821173331,1.41840819127,0.392,0.45,2,3,-1,680,3
0.171367967409,0.050206672947,0.516613549871,1.22766171463,0.652,0.45,3,3,1,681,3
0.259058314295,1.0556998533,0.193577332753,0.335431823464,0.497,0.45,1,1,1,682,3
0.156543483738,0.0774193833158,0.218988647882,1.22293752928,0.43,0.45,3,3,2,683,3
0.134678695825,0.860860115752,0.630161863091,1.03396868799,0.41,0.45,2,3,-1,684,3
0.141091618226,1.11617797883,0.199568643268,0.136634634958,0.452,0.45,1,1,1,685,3
1.1460776432,0.456354757313,0.165574712758,0.416289037321,0.478,0.45,0,0,1,686,3
0.402249247408,1.1702722222,0.232553278901,0.333253796981,0.45,0.45,1,1,1,687,3
0.272691796753,0.16132421325,1.14582441231,0.403097802477,0.345,0.45,2,2,2,688,3
0.200924119022,0.071077773531,0.227695746595,1.06855023868,0.323,0.45,3,3,2,689,3
1.01138543703,0.265307219597,0.169058397993,0.377374832776,0.381,0.45,0,0,2,690,3
0.201543085382,0.157621551973,1.05538072479,0.556700165701,0.42,0.45,2,2,2,691,3
1.13757553788,0.362432740071,0.237480439722,0.449314282751,0.432,0.45,0,0,2,692,3
0.166019274143,0.0968049581068,0.596817632045,1.0605619279,0.364,0.45,3,3,2,693,3
0.252732567376,0.111452820065,1.15824142675,0.469434548806,0.38,0.45,2,2,2,694,3
0.228098520707,1.25937302393,0.368591528933,0.455151591176,0.382,0.45,1,1,2,695,3
0.198077494778,0.099398992132,0.347001016207,1.19474308787,0.414,0.45,3,3,2,696,3
0.162519684753,1.18401835449,0.291772700536,0.37164967336,0.409,0.45,1,1,2,697,3
1.27338841214,0.155737582158,0.275051492075,0.52875829297,0.47,0.45,0,0,1,698,3
0.841932679422,1.12899916363,0.376461718891,0.369150997486,0.62,0.45,1,1,1,699,3
0.188172253051,0.0485331197161,1.11271411759,0.453924323552,0.42,0.45,2,2,2,700,3
1.27125622254,0.0481005543387,0.199354803572,0.559778377636,0.392,0.45,0,0,2,701,3
0.20222257381,0.0318578068734,0.331948526158,1.08379722591,0.391,0.45,3,3,2,702,3
0.230498862723,0.117266165328,1.08949913938,0.402947429813,0.43,0.45,2,2,2,703,3
0.381792935618,0.191699910867,0.183467769046,1.21274252771,0.475,0.45,3,3,1,704,3
1.1534853581,0.230990005463,0.108079222661,0.274940160916,0.458,0.45,0,0,1,705,3
0.15386909435,1.08612053861,0.349153259174,0.439489747688,0.35,0.45,1,1,2,706,3
0.133489409821,0.114595406711,0.390734335886,1.06960359312,0.373,0.45,3,3,2,707,3
0.294830139957,1.03185582158,0.225441085384,0.341964024773,0.428,0.45,1,1,2,708,3
1.10172710779,0.270425266334,0.183446528159,0.371892592965,0.374,0.45,0,0,2,709,3
0.20954659043,0.343634633069,1.05477029918,0.391660335845,0.367,0.45,2,2,2,710,3
1.10569010296,0.290161894487,0.193633609164,0.453647167078,0.44,0.45,1,0,-1,711,3
0.193544318694,0.154732731626,1.06359262571,0.412904614245,0.424,0.45,2,2,2,712,3
1.02644927185,0.158622284637,0.135660994204,0.396289038025,0.495,0.45,0,0,1,713,3
0.177993031947,0.162741706403,0.428046538162,1.1555524178,0.405,0.45,3,3,2,714,3
1.12687339581,0.0914606647557,0.145753038909,0.348178063941,0.423,0.45,0,0,2,715,3
0.217106132341,0.108594911704,1.02004124965,0.47789520177,0.345,0.45,2,2,2,716,3
0.260679724961,0.157520699031,0.187702456794,1.10673695066,0.396,0.45,3,3,2,717,3
0.354784264972,1.00760738334,0.244848440795,0.403758224252,0.38,0.45,1,1,2,718,3
1.22600782723,0.238776035515,0.192736678917,0.396909270458,0.361,0.45,0,0,2,719,3
1.00371406001,0.468141799549,0.244301157769,0.3610522034,0.507,0.45,1,0,-1,720,3
0.17963463317,0.0671069145984,0.464959207339,1.0079908172,0.397,0.45,3,3,2,721,3
0.214621831191,0.280922675709,1.08786106803,0.4743133154,0.466,0.45,2,2,1,722,3
0.210687825874,1.06128998193,0.272147912432,0.455524815326,0.408,0.45,1,1,2,723,3
1.10807474593,0.333637519558,0.244191736492,0.393076051597,0.336,0.45,0,0,2,724,3
0.185284388202,0.169913348118,0.494039415322,1.06511974477,0.367,0.45,3,3,2,725,3
0.188221962129,0.0895460022005,1.01899472376,0.444002888535,0.333,0.45,2,2,2,726,3
1.0342464083,0.219946830862,0.209107163022,0.538013987584,0.342,0.45,0,0,2,727,3
0.264190585142,0.125769404745,1.00787007497,0.507651567941,0.368,0.45,2,2,2,728,3
0.458916765281,0.150963657845,0.328729190521,1.1283934129,0.562,0.45,3,3,1,729,3
1.01553877653,0.161754795104,0.149832540909,0.451622863629,0.429,0.45,0,0,2,730,3
0.529269424631,1.06192753023,0.342093426825,0.364964836501,0.455,0.45,1,1,1,731,3
0.223154071397,0.0711180030335,0.607538163612,1.02792863291,0.383,0.45,3,3,2,732,3
0.427142383673,1.1236050074,0.252880687663,0.491924543762,0.387,0.45,1,1,2,733,3
0.323391593819,0.24959784748,1.06378437241,0.489373366303,0.34,0.45,2,2,2,734,3
1.02413957901,0.20866290022,0.211047897151,0.495836088804,0.365,0.45,1,0,-1,735,3
1.01273864681,0.318449746877,0.143908414047,0.429811670802,0.538,0.45,0,0,1,736,3
0.25937097568,0.168126961136,1.04226757935,0.493940388296,0.384,0.45,2,2,2,737,3
0.236936185469,0.107790764567,0.281674550106,1.04754028116,0.372,0.45,3,3,2,738,3
0.259248156147,0.0658560762487,0.463933862842,1.01465403793,0.374,0.45,2,3,-1,739,3
1.00024379492,0.0597728576253,0.172930240517,0.456652279312,0.37,0.45,0,0,2,740,3
0.240582186728,0.0413622503286,0.453535997537,1.02489197289,0.445,0.45,3,3,2,741,3
1.15755978306,0.0394018403968,0.052105543873,0.427386467575,0.359,0.45,0,0,2,742,3
0.523205989035,1.07671381577,0.143685513497,0.386599260631,0.564,0.45,1,1,1,743,3
0.243219767946,0.0464848805886,1.0346360726,0.458451296113,0.436,0.45,2,2,2,744,3
0.38314530322,1.00512746549,0.194454393846,0.439274499528,0.478,0.45,1,1,1,745,3
0.235935213659,0.0756086428192,0.284159152309,1.07445678709,0.44,0.45,3,3,2,746,3
0.500876715093,1.19484150526,0.252929329008,0.487496068173,0.389,0.45,1,1,2,747,3
0.244081074545,0.169838840435,1.17089726581,0.624864327447,0.378,0.45,2,2,2,748,3
1.00590495865,0.0968446038679,0.233857750158,0.682765728427,0.366,0.45,0,0,2,749,3
0.325087311207,0.0624637951558,0.290506205688,1.01179890289,0.36,0.45,3,3,2,750,3
1.16985870488,0.125976491664,0.142620536555,0.455620443795,0.384,0.45,0,0,2,751,3
0.404052304186,0.0593395429847,1.1604239202,0.319400667381,0.407,0.45,2,2,2,752,3
0.270002988177,0.0640184692995,0.411756840924,1.9373855016,0.387,0.45,3,3,2,753,3
0.488067743313,0.195546852218,0.158599863136,1.00363784923,0.408,0.45,2,3,-1,754,3
0.595174532509,1.96374582117,0.290939312329,0.297055173265,0.536,0.45,1,1,1,755,3
1.01169974665,0.140047834916,0.0980032001826,0.309977526694,0.602,0.45,0,0,1,756,3
0.504122730544,1.17692438669,0.380203540227,0.253648421536,0.666,0.45,1,1,1,757,3
0.243398778439,0.0333028217663,0.149403496662,1.08657215729,0.371,0.45,3,3,2,758,3
0.661200166073,1.14328080983,0.216281438026,0.249506714907,0.41,0.45,1,1,2,759,3
2.3702804892,0.10315111518,0.165187251703,0.467208581899,0.632,0.45,0,0,1,760,3
0.376600681814,0.048761139954,0.233853122213,1.02843719762,0.43,0.45,3,3,2,761,3
0.571197942027,1.25189082585,0.203683173082,0.283882978719,0.434,0.45,2,1,-1,762,3
0.290839046661,0.053044411412,0.086810088127,1.04203210912,0.429,0.45,3,3,2,763,3
1.1594429634,0.0556102754371,0.112382253904,0.322668747261,0.411,0.45,0,0,2,764,3
0.399667205782,0.0432800629293,1.01892858888,0.418907667116,0.389,0.45,2,2,2,765,3
0.461413719531,1.12679528143,0.221147937367,0.351145124438,0.409,0.45,1,1,2,766,3
0.207624245085,0.0537703681838,0.226561715892,1.0578094762,0.379,0.45,3,3,2,767,3
0.444218704196,1.17799193066,0.147646987903,0.288092420512,0.438,0.45,1,1,2,768,3
0.340824243347,0.161640320174,1.05781976794,0.318825550325,0.468,0.45,2,2,1,769,3
1.13153131311,0.0869728385332,0.0662347861479,0.31775157717,0.438,0.45,0,0,2,770,3
1.13488886119,0.0514329789667,0.208609917094,0.342917682979,0.407,0.45,1,0,-1,771,3
0.166381056434,0.0392415782433,1.09001742955,0.292807188631,0.327,0.45,2,2,2,772,3
1.09896373136,0.296229159837,0.332373678784,0.298479417219,0.427,0.45,0,0,2,773,3
0.365157695603,0.0702286751925,0.300441497287,1.1475218654,0.462,0.45,3,3,1,774,3
0.206505858562,0.0388857145494,1.00761158188,0.444938822072,0.459,0.45,2,2,1,775,3
0.224082114337,0.0416272663415,0.51181086002,1.1483040267,0.431,0.45,3,3,2,776,3
1.08842314441,0.0367435510764,0.119128453875,0.340064690457,0.414,0.45,0,0,2,777,3
0.497343415245,0.0411294201971,1.10001955141,0.408252509552,0.341,0.45,2,2,2,778,3
0.734076226318,1.02586322417,0.06870784092,0.149234066487,0.417,0.45,1,1,2,779,3
0.245481745597,0.0544478478816,0.350197850334,1.17041589555,0.39,0.45,3,3,2,780,3
0.386362885872,1.02667562242,0.461502808974,0.339978023217,0.405,0.45,1,1,2,781,3
1.23904336611,0.0420053144531,0.175045793482,0.384887863651,0.406,0.45,0,0,2,782,3
0.368030970356,1.0423392344,0.185700805104,0.277689452459,0.419,0.45,1,1,2,783,3
0.28883688224,0.088212063456,0.257807633561,1.02752706142,0.41,0.45,3,3,2,784,3
0.317057354726,0.0726136667458,1.00002745539,0.489789665096,0.533,0.45,2,2,1,785,3
0.302618621268,0.065274894519,1.03090781579,0.516055965248,0.229,0.45,0,2,-1,786,3
0.24460330993,0.0388089308915,0.0977986363905,1.13946654756,0.206,0.45,2,3,-1,787,3
0.236514101407,0.0605248421271,0.637430832035,1.0494673717,0.474,0.45,3,3,1,788,3
1.09083211121,0.216994107646,0.139050353354,0.431411430252,0.503,0.45,0,0,1,789,3
0.582068219201,1.00600075896,0.269536267006,0.411609286212,0.423,0.45,1,1,2,790,3
0.418774150643,0.123394743208,1.14573005665,0.471003339331,0.32,0.45,2,2,2,791,3
0.805197683248,1.08557187913,0.250625101471,0.331346609469,0.374,0.45,1,1,2,792,3
1.06846415931,0.222181879497,0.171158664177,0.375445167222,0.377,0.45,0,0,2,793,3
0.483016069964,0.0976541445043,0.136203158601,2.56626497794,0.377,0.45,3,3,2,794,3
0.436392337841,1.16237830076,0.186097435203,0.297932287999,0.542,0.45,1,1,1,795,3
1.07728860928,0.066017786966,0.112366696968,0.364028853882,0.422,0.45,0,0,2,796,3
0.2235617074,0.10561844807,1.12470682338,0.358346491838,0.344,0.45,2,2,2,797,3
0.210243498026,0.0924086422385,0.547625474228,1.09286870945,0.354,0.45,3,3,2,798,3
1.18622993251,0.0686967198306,0.100555833752,0.329126657621,0.365,0.45,0,0,2,799,3
0.212264295683,0.0896327059375,0.406104125039,1.00859271384,0.374,0.45,3,3,2,800,3
0.265427881214,0.0516935628801,1.01582531262,0.374855081762,0.395,0.45,2,2,2,801,3
1.0695155058,0.127698563951,0.057185632316,0.429547243411,0.389,0.45,0,0,2,802,3
0.490001066287,1.10737200569,0.315507941969,0.405963220148,0.424,0.45,1,1,2,803,3
0.182154566815,0.0485627617542,0.51962427727,1.13823652851,0.411,0.45,3,3,2,804,3
0.550737185532,1.08927613011,0.2151430524,0.306906877897,0.405,0.45,1,1,2,805,3
0.221807509534,0.0840708858476,1.01909077156,0.396723050711,0.287,0.45,2,2,2,806,3
0.286584967236,1.01775650186,0.185578992474,0.236950518748,0.5,0.45,1,1,1,807,3
0.202921301429,0.0592191073015,0.271570719279,1.02203170165,0.387,0.45,2,3,-1,808,3
1.08189813871,0.047006127342,0.0729207481292,0.338563372227,0.369,0.45,0,0,2,809,3
0.184061435034,0.0446965255146,0.455084096256,1.05853162907,0.376,0.45,3,3,2,810,3
1.20086134211,0.0466165343239,0.085128567793,0.287688124642,0.361,0.45,0,0,2,811,3
0.199065189384,0.044949942407,1.21399803686,0.469225606496,0.386,0.45,2,2,2,812,3
0.255877047545,0.0832016792551,0.250903820104,1.04752356034,0.371,0.45,3,3,2,813,3
0.246293626897,0.368750288621,1.06365454893,0.420874614083,0.522,0.45,1,2,-1,814,3
1.10190973727,0.220485123907,0.0553014610227,0.200170339978,0.51,0.45,0,0,1,815,3
0.593823652507,1.07502089229,0.208268431857,0.284695771144,0.601,0.45,1,1,1,816,3
0.178444724713,0.0340651103377,0.302435975848,1.02747548127,0.362,0.45,3,3,2,817,3
0.20933546378,0.12734785174,2.30374272454,0.654332595297,0.567,0.45,2,2,1,818,3
0.217131088329,1.15623689627,0.15596948378,0.217942906403,0.432,0.45,1,1,2,819,3
0.341611329307,0.152139489482,1.11640494258,0.728408147925,0.413,0.45,2,2,2,820,3
1.16319132907,0.659368389277,0.0658956583,0.169403282034,0.431,0.45,0,0,2,821,3
0.251268254302,0.0707240741373,0.508231671815,1.12358116936,0.401,0.45,3,3,2,822,3
1.19228245692,0.142231035649,0.166866595486,0.32068623463,0.402,0.45,0,0,2,823,3
0.303367187181,0.124218345666,1.09520323186,0.461860496601,0.353,0.45,2,2,2,824,3
0.212465560785,0.0811039147035,0.321201417472,1.05946190302,0.34,0.45,3,3,2,825,3
0.206469010172,0.100207317434,1.03155269697,0.446185571344,0.438,0.45,2,2,2,826,3
0.441735804497,1.16955599135,0.122034519066,0.352516469083,0.39,0.45,1,1,2,827,3
0.174524084585,0.0604486805127,0.299939892475,1.05075425179,0.331,0.45,3,3,2,828,3
0.288991760266,1.00305666098,0.17142817465,0.304800244313,0.393,0.45,1,1,2,829,3
1.0632430516,0.0471692116694,0.166130544017,0.406703504702,0.374,0.45,0,0,2,830,3
1.02658897392,0.0510696551137,0.191985783968,0.392079014685,0.38,0.45,1,0,-1,831,3
0.183080162594,0.0551787350667,0.686098688079,1.0027846539,0.301,0.45,2,3,-1,832,3
1.26689471822,0.0580611754998,0.167851671047,0.20121502797,0.389,0.45,0,0,2,833,3
0.181358150346,0.0459111694413,0.344795063154,1.12674535697,0.376,0.45,3,3,2,834,3
1.04038514499,0.0467761690448,0.086605026896,0.23318868617,0.409,0.45,0,0,2,835,3
0.304724984203,0.0370609274564,1.13366128184,0.297910288811,0.37,0.45,2,2,2,836,3
0.207786955605,0.0390026128097,0.174108941898,1.02757265805,0.295,0.45,3,3,2,837,3
1.2050073863,0.0390574316575,0.174788719628,0.289098357593,0.391,0.45,1,0,-1,838,3
0.78099443072,0.317822225494,0.173384519691,0.302685677076,0.7,0.45,0,-1,0,840,3
0.435632694344,0.127587851932,0.567025237721,0.594719660494,0.7,0.45,1,-1,0,841,3
0.194997277333,0.0502424565311,1.03022492746,0.405896554951,0.35,0.45,3,2,-1,841,3
0.213709959689,0.441552649862,1.00446549342,0.367443181729,0.574,0.45,2,2,1,842,3
1.15358853867,0.0601645603483,0.0415975865317,0.319599780231,0.421,0.45,1,0,-1,843,3
0.136564453794,0.104476552947,1.17953074555,0.954195779313,0.432,0.45,2,2,2,844,3
0.160349690911,0.10416428806,0.294280853088,1.01675082258,0.429,0.45,3,3,2,845,3
1.21194352774,0.0577870260046,0.147078310674,0.397205561483,0.422,0.45,0,0,2,846,3
0.153456755926,0.0594952143723,0.179121599122,1.1132330753,0.373,0.45,3,3,2,847,3
0.205435497878,0.101232783881,1.03130495396,0.443095918485,0.354,0.45,2,2,2,848,3
0.438068771539,0.0779308079731,0.179683244576,0.443383132211,0.7,0.45,0,-1,0,850,3
0.408116119773,1.16822699158,0.404297707665,0.300518967829,0.526,0.45,1,1,1,850,3
0.167306531964,0.116182042541,0.186356361035,1.14205312848,0.411,0.45,3,3,2,851,3
0.264287801042,1.08139292557,0.178254732501,0.244893632331,0.357,0.45,1,1,2,852,3
1.13460351557,0.0858704139914,0.206443141666,0.458199365992,0.351,0.45,0,0,2,853,3
0.182555531236,0.0652862154647,1.03115954866,0.610947211913,0.457,0.45,2,2,1,854,3
0.334010707471,1.05062089533,0.110034728143,0.188173394472,0.493,0.45,1,1,1,855,3
0.144177015269,0.0992455047201,1.08460618975,0.28362710395,0.438,0.45,2,2,2,856,3
0.140329278023,0.108638539996,0.274218196566,1.07608367484,0.293,0.45,3,3,2,857,3
1.24547037213,0.674496098429,0.170995489439,0.28916498764,0.387,0.45,0,0,2,858,3
0.198642865727,0.0359328641395,0.968085951221,3.73123258858,0.388,0.45,3,3,2,859,3
0.256097823543,0.0744419725095,1.04970877201,0.342737827033,0.339,0.45,2,2,2,860,3
1.15229962857,0.179386329316,0.148154320695,0.450447997022,0.342,0.45,0,0,2,861,3
0.259054230331,1.07889364169,0.268359994902,0.450256882094,0.4,0.45,1,1,2,862,3
1.17033324128,0.0659304707545,0.358797004183,0.423220383166,0.415,0.45,0,0,2,863,3
0.173511722812,0.0620038413681,0.75163898524,1.04697576663,0.351,0.45,2,3,-1,864,3
0.13432133563,1.09603374039,0.219236882818,0.300096261327,0.358,0.45,1,1,2,865,3
0.121103745286,0.13802601182,0.38993345354,1.13353049318,0.374,0.45,3,3,2,866,3
0.133323294512,1.08763275282,0.205952355457,0.248188487185,0.323,0.45,1,1,2,867,3
0.355060559664,0.165343183171,0.227302433725,1.20167578615,0.44,0.45,3,3,2,868,4
0.621321400871,1.26487301766,0.161676209478,0.283457247715,0.303,0.45,1,1,2,869,4
1.2857292815,0.398850218211,0.190892362994,0.341363579197,0.315,0.45,0,0,2,870,4
0.192131725698,0.424261320863,1.19765147831,0.775919457593,0.389,0.45,2,2,2,871,4
0.248387302388,1.01382856824,0.204568501474,0.279157846842,0.38,0.45,1,1,2,872,4
0.249359461492,0.505768080498,1.00535052848,0.455932191114,0.419,0.45,2,2,2,873,4
1.03932575741,0.339958472253,0.12179763544,0.295788919852,0.361,0.45,0,0,2,874,4
0.436331777096,0.253896242528,0.137728679667,1.28068781869,0.32,0.45,3,3,2,875,4
0.152107025271,0.285640909815,1.04031353519,0.398954348882,0.39,0.45,2,2,2,876,4
0.160445106406,0.110262791142,0.268111696874,1.15332951798,0.389,0.45,3,3,2,877,4
1.2104716429,0.308413183034,0.119524133388,0.332527752798,0.369,0.45,0,0,2,878,4
0.494716119616,1.0930721422,0.180881779071,0.289534842415,0.397,0.45,1,1,2,879,4
0.502044997915,0.233209586883,0.214398743949,2.02103647574,0.418,0.45,3,3,2,880,4
1.08463402704,0.347934232752,0.16309263424,0.319683271213,0.342,0.45,0,0,2,881,4
0.346162985135,0.383433173174,1.0681741205,0.482679180988,0.324,0.45,2,2,2,882,4
1.01858378007,0.279256059829,0.134947691342,0.370099922155,0.319,0.45,1,0,-1,883,4
0.207983247779,0.649988983592,1.02882106766,0.32925825323,0.395,0.45,2,2,2,884,4
1.05367016229,0.275710491132,0.193984673815,0.355746720243,0.359,0.45,0,0,2,885,4
0.327769519159,1.11003163433,0.178049662594,0.283092357754,0.409,0.45,1,1,2,886,4
0.39984183657,0.215714497895,0.243278479557,1.02441518647,0.365,0.45,3,3,2,887,4
0.494369214556,1.29831397172,0.197092467494,0.252981800181,0.371,0.45,1,1,2,888,4
1.20211315426,0.296617542261,0.152872333069,0.307080436768,0.387,0.45,0,0,2,889,4
0.430323407382,0.258874315048,0.143820972957,1.15301067422,0.35,0.45,3,3,2,890,4
0.352652395887,0.340571391611,1.11017766895,0.328603739758,0.435,0.45,2,2,2,891,4
0.241892021978,0.141618934105,0.230918289694,1.0376504676,0.406,0.45,3,3,2,892,4
1.06767685153,0.26683275357,0.106161961965,0.228281863628,0.438,0.45,0,0,2,893,4
0.250370359159,0.320296214421,1.15384108396,0.263684232192,0.421,0.45,2,2,2,894,4
0.492291878379,1.06103656284,0.0724570111878,0.17173722761,0.515,0.45,1,1,1,895,4
0.405580752271,0.183695383276,0.104478791612,1.03655514921,0.372,0.45,2,3,-1,896,4
0.123404428456,0.472378591133,1.0181612956,0.16989356308,0.0790000000005,0.45,0,2,-1,897,4
0.462147339314,1.16215032421,0.275955864909,0.242718207445,0.438,0.45,1,1,2,898,4
1.02240487267,0.155171768868,0.201863502727,0.278160448904,0.404,0.45,0,0,2,899,4
0.493769675541,0.103209602362,0.134180434024,1.12297926509,0.324,0.45,3,3,2,900,4
0.809240835985,1.01801440452,0.157388115473,0.198117079685,0.348,0.45,1,1,2,901,4
0.345933421834,0.162652527394,0.139370285632,1.00427616111,0.295,0.45,3,3,2,902,4
0.129442523086,0.157996006949,1.19333360558,0.276676475453,0.359,0.45,2,2,2,903,4
0.282371466176,0.125471688067,0.202519024406,1.0120887639,0.403,0.45,3,3,2,904,4
0.26528107733,0.15037388362,1.02870347915,0.255148198044,0.422,0.45,2,2,2,905,4
0.515949284473,1.28068318816,0.159381530994,0.198786181434,0.415,0.45,1,1,2,906,4
1.03117772498,0.311828656142,0.19453947272,0.350642821039,0.344,0.45,0,0,2,907,4
0.369940951297,0.220129747618,1.07333959927,0.293794800519,0.373,0.45,2,2,2,908,4
1.10176244566,0.319246858793,0.132206742712,0.215387624309,0.411,0.45,0,0,2,909,4
1.17748424561,0.144705165234,0.163687687002,0.288245146302,0.409,0.45,1,0,-1,910,4
0.229275086012,0.0891201617878,0.515615488638,1.14605386763,0.351,0.45,3,3,2,911,4
1.24794901465,0.352409688693,0.16000855985,0.25887089491,0.405,0.45,0,0,2,912,4
0.309467882187,0.16626887004,0.241665037329,1.0829456861,0.347,0.45,3,3,2,913,4
0.630758143126,1.09206159227,0.176950750643,0.20471272811,0.427,0.45,1,1,2,914,4
0.325028344162,0.205419340086,1.15903803903,0.317024403341,0.332,0.45,2,2,2,915,4
0.265646757214,0.160981387277,0.176281111542,1.25895462426,0.355,0.45,3,3,2,916,4
0.21128314141,0.22774702792,1.15706850494,0.427917866381,0.43,0.45,2,2,2,917,4
0.210316399642,1.03701262122,0.144695068072,0.179034229012,0.371,0.45,1,1,2,918,4
1.08322141368,0.230747662072,0.121786915112,0.283120394931,0.342,0.45,0,0,2,919,4
0.452922765291,1.29761382976,0.192736708817,0.290300121305,0.425,0.45,1,1,2,920,4
0.230050276713,1.26327886127,0.231573535748,0.204130562355,0.377,0.45,2,1,-1,921,4
1.03495890774,0.272765346759,0.363394625951,0.392084075335,0.453,0.45,0,0,1,922,4
0.269797903583,0.131727605918,0.319554061568,1.01950585369,0.4,0.45,3,3,2,923,4
0.571119361976,1.18110952221,0.190629334745,0.212647609327,0.391,0.45,1,1,2,924,4
0.186749908506,0.113838190408,0.281997200424,1.00736313094,0.387,0.45,3,3,2,925,4
1.20975040938,0.249721708847,0.113869174349,0.18791734556,0.354,0.45,0,0,2,926,4
0.152777898531,0.850358555606,1.01359529354,0.304285698878,0.387,0.45,2,2,2,927,4
0.226474780549,0.0905667685217,0.519351523681,1.22660659097,0.403,0.45,3,3,2,928,4
0.269030496187,0.153220031136,1.05689790137,0.230890949462,0.413,0.45,2,2,2,929,4
0.484186035602,1.16215767497,0.128634651669,0.229432244644,0.438,0.45,1,1,2,930,4
1.06897270669,0.186920219773,0.0983742344505,0.251411216564,0.435,0.45,0,0,2,931,4
0.467518874512,0.341699745272,1.08345673579,0.46626348812,0.502,0.45,2,2,1,932,4
1.17821328506,0.16698491111,0.0653437437334,0.241464836059,0.448,0.45,0,0,2,933,4
0.486918963708,1.04227859639,0.197392872474,0.239470167107,0.387,0.45,1,1,2,934,4
0.27735468218,0.104711496053,0.27635507429,1.01639453331,0.346,0.45,3,3,2,935,4
1.1840062038,0.129588579119,0.232241681595,0.253194338991,0.396,0.45,0,0,2,936,4
0.226674109859,0.0838050315091,0.193933268887,1.05796091604,0.385,0.45,3,3,2,937,4
0.439286885882,1.13063534303,0.151480221635,0.175150566912,0.537,0.45,1,1,1,938,4
0.165470364327,0.0674247312167,1.04071340773,0.519090398896,0.422,0.45,2,2,2,939,4
0.195477724494,0.0744883517497,0.224076322141,1.13041593979,0.447,0.45,3,3,2,940,4
0.582155304383,1.12174135802,0.0868226415396,0.136012761831,0.376,0.45,1,1,2,941,4
0.167298241187,0.115950260807,1.08474620137,0.604186249063,0.463,0.45,2,2,1,942,4
1.22506907819,0.0786703866863,0.0611257416202,0.120070967202,0.427,0.45,0,0,2,943,4
0.38469526144,0.163414478929,1.18947600214,0.241346104111,0.371,0.45,2,2,2,944,4
0.547049370302,1.1207579081,0.587364312331,0.223072691518,0.475,0.45,1,1,1,945,4
1.09951320268,0.215539013895,0.170187057298,0.11045760793,0.380000000001,0.45,0,0,2,946,4
0.529290709406,0.11280912455,0.238288372379,1.06739704437,0.312000000001,0.45,3,3,2,947,4
1.029508746,0.206303450249,0.127880955811,0.158483036595,0.496000000001,0.45,0,0,1,948,4
0.323560953413,1.03047288414,0.590215247681,0.667185522975,0.583000000001,0.45,1,1,1,949,4
0.426206647247,0.135927285817,0.201791667127,1.02468450515,0.437000000001,0.45,3,3,2,950,4
0.469379856408,0.449545177596,1.03696745422,0.392896802498,0.475000000001,0.45,2,2,1,951,4
0.286959152682,0.0610133452111,0.439825619995,1.06484717186,0.492000000001,0.45,3,3,1,952,4
1.03278736878,0.364127903819,0.0505794228676,0.106579318268,0.469000000001,0.45,0,0,1,953,4
0.194300076374,0.377784996828,1.12575093121,0.599431859938,0.455000000001,0.45,2,2,1,954,4
0.681776620596,1.16644819621,0.155001739561,0.103836879253,0.484000000001,0.45,1,1,1,955,4
0.147291227593,0.360673941817,1.14459707217,0.113908826735,0.457000000001,0.45,2,2,1,956,4
1.10720959871,0.577112835439,0.0523541554997,0.065780390009,0.418000000001,0.45,0,0,2,957,4
0.577204914845,1.21562884571,0.0622523832152,0.0618371702654,0.426000000001,0.45,1,1,2,958,4
0.094912029846,0.0338766678172,0.178585564865,1.27508131002,0.613000000001,0.45,3,3,1,959,4
0.0869272074751,0.301838150269,1.22640127035,0.112424856003,0.513000000001,0.45,2,2,1,960,4
0.372438882299,0.169208121701,0.23088025435,1.00350713799,0.536000000001,0.45,3,3,1,961,4
0.227720319223,1.12552919328,0.112297926866,0.32453423181,0.520000000001,0.45,1,1,1,962,4
1.07518558262,0.442196095046,0.191096631085,0.331166987725,0.414000000001,0.45,0,0,2,963,4
0.217393551878,0.0567661716887,0.884087430248,1.24249391512,0.406000000001,0.45,3,3,2,964,4
1.10051466618,0.215222664571,0.0993665303198,0.171688931487,0.405000000001,0.45,0,0,2,965,4
0.233521004093,0.103973447187,1.08368579323,0.227068987503,0.360000000001,0.45,2,2,2,966,4
0.409613138254,1.11653551665,0.189773346496,0.12678139832,0.384000000001,0.45,1,1,2,967,4
1.25503566988,0.137374599743,0.0727553358176,0.214627803224,0.317000000001,0.45,0,0,2,968,4
0.319928361604,1.29385434302,0.217095863213,0.182187822162,0.439000000001,0.45,1,1,2,969,4
0.285385725906,0.0976210998622,1.13704263424,0.201832969515,0.363000000001,0.45,2,2,2,970,4
1.12870157054,0.245202448537,0.112021854962,0.336985943392,0.345000000001,0.45,0,0,2,971,4
0.202806030376,0.0822051009651,0.460619856844,1.15082483448,0.334000000001,0.45,3,3,2,972,4
0.390673083139,1.0106111462,0.0831875095338,0.118379219897,0.418000000001,0.45,1,1,2,973,4
0.18355574543,0.0438224893396,0.682513508719,1.43001432504,0.384000000001,0.45,3,3,2,974,4
0.335423139062,0.124644136725,1.1021905453,0.3158113218,0.453000000001,0.45,2,2,1,975,4
0.192970549621,0.064741781854,0.127355425941,1.08780010857,0.395000000001,0.45,3,3,2,976,4
0.39890652423,1.00012128878,0.094875294444,0.158054053597,0.493000000001,0.45,1,1,1,977,4
0.221048199595,0.110366284856,1.12141508422,0.247771948307,0.389000000001,0.45,2,2,2,978,4
1.03084333564,0.0853685952941,0.060543010586,0.315993019886,0.390000000001,0.45,0,0,2,979,4
0.416475196679,1.22740716638,0.207641366,0.195984747409,0.550000000001,0.45,1,1,1,980,4
1.30803012156,0.0898823502454,0.185481933417,0.426926685902,0.601000000001,0.45,0,0,1,981,4
0.279382567335,0.225305754067,1.12673788184,0.296335064335,0.435000000001,0.45,2,2,2,982,4
0.411500464201,1.09980598345,0.111403761733,0.161965317629,0.413000000001,0.45,1,1,2,983,4
0.235307081713,0.114792179395,0.30380642978,1.04005886357,0.388000000001,0.45,3,3,2,984,4
0.279349980562,0.128028128619,1.02966790813,0.349884335063,0.404000000001,0.45,2,2,2,985,4
0.183237434604,0.0977294690896,0.214981139848,1.1281385986,0.423000000001,0.45,3,3,2,986,4
1.06676489696,0.175860729417,0.114168938192,0.247820757375,0.396000000001,0.45,0,0,2,987,4
0.174039242954,0.103177376549,0.260199925861,1.09780144464,0.402000000001,0.45,3,3,2,988,4
1.00056659467,0.251748705438,0.149086334739,0.397577196507,0.388000000001,0.45,0,0,2,989,4
0.380164599381,1.17015010196,0.316735330721,0.358276370465,0.377000000001,0.45,1,1,2,990,4
0.283418914511,0.157576516377,1.02397233085,0.327077321155,0.270000000001,0.45,2,2,2,991,4
1.02962172546,0.271949892109,0.167811058671,0.516268223714,0.460000000001,0.45,0,0,1,992,4
0.277965233804,0.141301032165,1.02767519287,0.418857185358,0.392000000001,0.45,2,2,2,993,4
0.293595053244,1.01767456152,0.18693279533,0.241387880681,0.439000000001,0.45,1,1,2,994,4
1.11538863061,0.291558680905,0.142569987321,0.481273412352,0.363000000001,0.45,0,0,2,995,4
0.277757385317,0.139684986241,0.155093978052,1.19313340795,0.322000000001,0.45,3,3,2,996,4
1.11333065665,0.299926019735,0.106964430981,0.171844012068,0.474000000001,0.45,1,0,-1,997,4
0.262003009741,0.0732051849862,0.134020853731,1.28469764328,0.337000000001,0.45,3,3,2,998,4
0.222440934961,0.143485803695,1.04566259235,0.608549591144,0.401000000001,0.45,2,2,2,999,4
0.260104490396,0.077823716282,0.324299930713,1.11016831687,0.446000000001,0.45,3,3,2,1000,4
0.302957085118,0.310500359737,1.14193987622,0.333007068935,0.453000000001,0.45,2,2,1,1001,4
0.760617494124,1.17276480907,0.172285543681,0.310467301216,0.475000000001,0.45,1,1,1,1002,4
1.04682880005,0.229069501281,0.0902162953832,0.262256444956,0.508000000001,0.45,0,0,1,1003,4
0.178757654126,0.167602582946,1.03615802102,0.294934300828,0.409000000001,0.45,2,2,2,1004,4
1.11627707642,0.547199580221,0.427961762102,0.359669245519,0.483000000001,0.45,0,0,1,1005,4
0.292452982784,1.10658727081,0.36008269533,0.245249648125,0.387000000001,0.45,1,1,2,1006,4
0.187954553745,1.04276654152,0.657488707667,0.215570577872,0.404000000001,0.45,2,1,-1,1007,4
0.157670736868,0.066282464762,0.521828164131,1.09760406855,0.402000000001,0.45,3,3,2,1008,4
1.01220008288,0.614193604541,0.340749068609,0.243666961482,0.492000000001,0.45,1,0,-1,1009,4
0.143158577413,0.074186491959,0.172332608816,1.19555984869,0.412000000001,0.45,3,3,2,1010,4
1.00535895993,0.20969155458,0.133332873453,0.16516837439,0.428000000001,0.45,0,0,2,1011,4
0.157253425753,0.179470935241,0.394001338195,1.11186745337,0.556000000001,0.45,3,3,1,1012,4
0.173188371272,0.381349765156,1.09773904536,1.01099657163,0.474000000001,0.45,2,2,1,1013,4
1.1223888528,0.240188861644,0.181998847203,0.105873739968,0.435000000001,0.45,0,0,2,1014,4
0.139715006577,1.07834340929,0.0802706682407,0.10265868036,0.351000000001,0.45,1,1,2,1015,4
1.15755579289,0.145254346949,0.147977684639,0.0709878836579,0.518000000001,0.45,0,0,1,1016,4
0.145476457394,0.352042968084,1.09683903384,0.193825101803,0.454000000001,0.45,2,2,1,1017,4
0.357363855601,1.06019787562,0.222356761457,0.060042132135,0.536000000001,0.45,1,1,1,1018,4
0.137679791226,0.112074786797,1.13827990716,0.095920259562,0.421000000001,0.45,2,2,2,1019,4
0.127560427458,0.0693888718002,0.202761317019,1.08486678605,0.381000000001,0.45,3,3,2,1020,4
0.134499497989,1.0853538375,0.245274358785,0.111910060707,0.453000000001,0.45,1,1,1,1021,4
0.0961628239784,0.0423037174615,0.217815212313,1.05467294221,0.397000000001,0.45,3,3,2,1022,4
0.233721071847,1.01309559426,0.174421036444,0.378453914074,0.361000000001,0.45,0,1,-1,1023,4
0.121899319917,0.101946488953,0.195809568785,1.06344891473,0.378000000001,0.45,3,3,2,1024,4
1.08943455061,0.137351964927,0.164362544861,0.262292141614,0.409000000001,0.45,0,0,2,1025,4
0.155395600542,0.158416603323,1.02506396995,0.418801204187,0.384000000001,0.45,2,2,2,1026,4
0.222810634988,1.17763123737,0.234959490808,0.156460892979,0.351000000001,0.45,1,1,2,1027,4
0.128524473585,0.0668832040423,1.06312315647,0.448254923095,0.322000000001,0.45,2,2,2,1028,4
1.08421485474,0.35037633412,0.230946320564,0.31139798783,0.481000000001,0.45,0,0,1,1029,4
0.282505218892,1.04411174509,0.315213829381,0.321466853292,0.486000000001,0.45,1,1,1,1030,4
0.113484385128,0.140783010368,0.257862535824,1.06128741282,0.384000000001,0.45,3,3,2,1031,4
0.184843010468,0.303330096338,1.01048937243,0.701103282749,0.439000000001,0.45,2,2,2,1032,4
0.145074997792,0.219779388412,0.19509399933,1.25326068832,0.414000000001,0.45,3,3,2,1033,4
0.346776136735,1.05387864911,0.535941318192,0.297602645099,0.410000000001,0.45,1,1,2,1034,4
0.489862517233,0.339012587253,0.226768963564,0.27702586158,0.7,0.45,0,-1,0,1036,4
0.211205201726,0.154943493457,0.439283588545,1.21625066339,0.420000000001,0.45,3,3,2,1036,4
0.312810302564,1.08499532044,0.228022371798,0.189163544609,0.403000000001,0.45,1,1,2,1037,4
0.298399567416,0.408533744775,1.0978456252,0.88530105458,0.403000000001,0.45,2,2,2,1038,4
0.36091781362,0.247424650633,0.16184244825,0.0324335437973,0.7,0.45,0,-1,0,1040,4
0.179901699489,0.268966669081,1.06823533422,0.58458007896,0.609000000001,0.45,2,2,1,1040,4
0.353623641927,1.22780831139,0.325200226722,0.408284138014,0.432000000001,0.45,1,1,2,1041,4
1.04158647117,0.700449178797,0.306395985639,0.714188197646,0.548000000001,0.45,0,0,1,1042,4
0.66804025029,0.662971771066,0.456253804863,0.248734578167,0.7,0.45,1,-1,0,1044,4
0.624624043844,1.05886537139,0.434988720478,0.479927116869,0.197000000001,0.45,3,1,-1,1044,4
0.591788418353,0.268580191798,0.231397713597,0.338004396169,0.7,0.45,0,-1,0,1046,4
0.2673945254,0.0888024584425,0.178588348563,0.0875167461744,0.7,0.45,3,-1,0,1047,4
0.410425001429,0.0557445822363,0.215277540456,0.520870903438,0.7,0.45,2,-1,0,1048,4
0.49915520863,0.375817234832,0.410919464047,1.03402196559,0.694000000001,0.45,3,3,1,1048,4
0.500028883253,0.303911163222,0.267565461054,0.792704128356,0.7,0.45,1,-1,0,1050,4
0.525928586419,0.355817946842,1.11844974591,0.512779367984,0.491000000001,0.45,2,2,1,1050,4
1.26806672509,0.271260151462,0.265615912927,0.889057826426,0.454000000001,0.45,0,0,1,1051,4
0.525714670965,0.557118321232,0.476898356882,1.06842208282,0.400000000001,0.45,2,3,-1,1052,4
0.340896387027,1.03187342302,0.330752038697,0.262733444682,0.433000000001,0.45,1,1,2,1053,4
1.17021669174,0.216311555821,0.341025739768,0.35908893009,0.354000000001,0.45,0,0,2,1054,4
0.565510682688,1.06972327097,0.284451734191,0.213396116692,0.413000000001,0.45,1,1,2,1055,4
0.239389042958,0.131964151119,0.611155950443,1.21143455299,0.377000000001,0.45,3,3,2,1056,4
1.02174156544,0.304045371245,0.236319251203,0.222091163627,0.372000000001,0.45,0,0,2,1057,4
0.359726423754,0.224267901469,0.402009846334,1.16939468809,0.408000000001,0.45,3,3,2,1058,4
0.366660347215,0.313231413922,1.06562697455,0.425379908667,0.426000000001,0.45,2,2,2,1059,4
0.369612633068,0.236305537723,0.289403625631,1.06461302826,0.427000000001,0.45,3,3,2,1060,4
1.04018446121,0.283859986705,0.228625866265,0.162910009318,0.369000000001,0.45,0,0,2,1061,4
0.93643148974,1.10081795714,0.331966481627,0.319250189829,0.404000000001,0.45,1,1,2,1062,4
0.401796316576,0.296579827267,1.02751969712,0.317880314893,0.285000000001,0.45,2,2,2,1063,4
1.02343095053,0.332808204406,0.250871468515,0.253856881365,0.361000000001,0.45,0,0,2,1064,4
0.378694774835,0.292770435062,1.11018596679,0.332467388803,0.343000000001,0.45,2,2,2,1065,4
0.518753097844,1.06977742622,0.291688153072,0.209758229737,0.351000000001,0.45,1,1,2,1066,4
1.12704014874,0.407459821221,0.314498746717,0.496178119851,0.380000000001,0.45,0,0,2,1067,4
0.448008962373,0.231355580306,0.30351002352,1.0890385782,0.308000000001,0.45,3,3,2,1068,4
0.226585693659,0.612123573565,1.06476008296,1.00358682024,0.419000000001,0.45,2,2,2,1069,4
0.26852482833,0.0883175702014,0.326424908667,1.04407556151,0.409000000001,0.45,3,3,2,1070,4
0.536916413125,1.08057700748,0.303282371295,0.180403212639,0.398000000001,0.45,1,1,2,1071,4
0.468352855439,0.196428871738,0.317472503759,1.30434157535,0.365000000001,0.45,3,3,2,1072,4
1.00255063833,0.288701190771,0.275821665096,0.213912057206,0.321000000001,0.45,0,0,2,1073,4
0.321710181681,0.920516583629,1.02489236467,0.491533316112,0.436000000001,0.45,2,2,2,1074,4
0.324175574676,1.26666975742,0.249141799118,0.142899114583,0.416000000001,0.45,1,1,2,1075,4
0.18754233575,0.105026319299,1.11865016261,0.241402483724,0.321000000001,0.45,2,2,2,1076,4
1.26482173865,0.226725313294,0.205410278616,0.219852479621,0.403000000001,0.45,0,0,2,1077,4
1.07451304169,0.477299147544,0.303829738666,0.317779241166,0.416000000001,0.45,1,0,-1,1078,4
0.422854135999,0.110444977909,0.297952540491,1.26678008655,0.362000000001,0.45,3,3,2,1079,4
0.322420222163,1.14015414007,0.269222819333,0.154694033691,0.385000000001,0.45,1,1,2,1080,4
1.09443265231,0.122691176033,0.305242637196,0.27325111702,0.381000000001,0.45,0,0,2,1081,4
0.332399419281,0.205333749921,0.399458093988,1.01706339246,0.390000000001,0.45,3,3,2,1082,4
0.224989967597,0.129397812601,1.07145534003,0.326388827416,0.381000000001,0.45,2,2,2,1083,4
0.357114108087,0.146832637178,0.181496793138,1.2629506244,0.404000000001,0.45,3,3,2,1084,4
1.11460418273,0.298300774919,0.255158464903,0.409501081156,0.371000000001,0.45,0,0,2,1085,5
0.217717085418,0.227885515384,0.272822237073,1.0793867004,0.353000000001,0.45,2,3,-1,1086,5
0.448546183143,1.04921389324,0.320633808172,0.236255492308,0.413000000001,0.45,1,1,2,1087,5
0.178577892794,0.132540766293,0.240213156267,1.04831173012,0.311000000001,0.45,3,3,2,1088,5
0.212861516161,1.05635847453,0.222512049226,0.0819780315424,0.337000000001,0.45,1,1,2,1089,5
0.313125596814,0.511913387934,1.0175657357,0.292015122419,0.334000000001,0.45,2,2,2,1090,5
0.231194332921,0.0923975958195,0.373577808349,1.09726255534,0.317000000001,0.45,3,3,2,1091,5
1.02243400429,0.210161300019,0.220239848138,0.222545787326,0.343000000001,0.45,0,0,2,1092,5
0.438413901015,1.09738755728,0.474677132678,0.297519399936,0.368000000001,0.45,1,1,2,1093,5
1.19565942806,0.133349186117,0.224756102761,0.130238439857,0.396000000001,0.45,0,0,2,1094,5
0.184825364286,0.152299387758,0.256541036867,1.10133430948,0.321000000001,0.45,3,3,2,1095,5
0.26684240707,0.263050539315,1.15331132517,0.407627592826,0.440000000001,0.45,2,2,2,1096,5
1.17360045682,0.218086631143,0.233181531812,0.134547230149,0.421000000001,0.45,0,0,2,1097,5
0.352498803237,1.00622822258,0.283631669688,0.1896382689,0.366000000001,0.45,1,1,2,1098,5
0.17313653246,0.14491208496,1.12393195196,0.4611218752,0.346000000001,0.45,3,2,-1,1099,5
0.441214351446,1.02521777105,0.314106355117,0.45661994076,0.396000000001,0.45,2,1,-1,1100,5
0.198898370177,1.07781462055,0.292953390323,0.117576077059,0.389000000001,0.45,1,1,2,1101,5
0.148620163181,0.0565771062539,1.07166049272,0.234498646566,0.339000000001,0.45,2,2,2,1102,5
0.459085263621,0.164696032152,0.320572235523,1.00748067396,0.382000000001,0.45,3,3,2,1103,5
1.18713388242,0.35676152039,0.199104389771,0.619281743671,0.353000000001,0.45,0,0,2,1104,5
0.255591177811,0.546672159699,1.07085742318,1.04443888224,0.399000000001,0.45,2,2,2,1105,5
1.19957338515,0.216628988477,0.214063357706,0.397623535786,0.392000000001,0.45,0,0,2,1106,5
0.281772492797,0.194371183065,0.236623471524,1.09348545599,0.325000000001,0.45,3,3,2,1107,5
0.448714285949,1.0313356095,0.833334772469,0.260448511701,0.371000000001,0.45,1,1,2,1108,5
1.01384857995,0.228941765574,0.21114610317,0.13530939877,0.372000000001,0.45,0,0,2,1109,5
0.237189242305,0.286223638485,1.07583344409,0.362808114411,0.351000000001,0.45,2,2,2,1110,5
0.427344307212,1.04849195486,0.238424788618,0.109048847659,0.497000000001,0.45,1,1,1,1111,5
0.337878383366,0.168656704261,0.256480886424,1.06275644522,0.376000000001,0.45,3,3,2,1112,5
0.656498454026,1.15223927334,0.276946817675,0.0764743344061,0.452000000001,0.45,1,1,1,1113,5
0.184921754441,0.44647341059,1.13009097921,0.821516444224,0.480000000001,0.45,2,2,1,1114,5
0.209931995817,0.0772544706138,0.371235902622,1.08459730371,0.411000000001,0.45,3,3,2,1115,5
1.1052561563,0.1765873362,0.208996405404,0.249127946689,0.337000000001,0.45,0,0,2,1116,5
0.267010846753,1.07894172419,0.25114338257,0.112657258989,0.383000000001,0.45,1,1,2,1117,5
1.01885794421,0.100765135613,0.194282654236,0.225928740841,0.460000000001,0.45,0,0,1,1118,5
0.254295110517,0.138238235032,0.275763050149,1.09729995969,0.424000000001,0.45,3,3,2,1119,5
0.229886357087,0.166880620348,1.02287919442,0.544391371152,0.399000000001,0.45,2,2,2,1120,5
1.01271362513,0.168983743653,0.149943133237,0.0831034584803,0.354000000001,0.45,0,0,2,1121,5
0.381410897687,0.119926585372,0.309141380434,1.1452243627,0.389000000001,0.45,3,3,2,1122,5
0.220285749526,0.244255928917,1.08632035551,0.594635150706,0.402000000001,0.45,2,2,2,1123,5
0.349349665923,1.01574171678,0.17647815987,0.0402474154485,0.403000000001,0.45,1,1,2,1124,5
0.305415265475,0.0990169621217,0.598050910087,1.02899564446,0.364000000001,0.45,3,3,2,1125,5
0.272755121336,1.03374570718,0.227242281669,0.363034698782,0.380000000001,0.45,1,1,2,1126,5
0.236364811861,0.0925062825705,1.08534614853,0.644929227106,0.309000000001,0.45,2,2,2,1127,5
1.04778034136,0.0805063150892,0.206002254528,0.344042495187,0.337000000001,0.45,0,0,2,1128,5
0.225345753322,1.15054092911,0.356085600452,0.168026025026,0.412000000001,0.45,1,1,2,1129,5
1.13185898481,0.130517949098,0.241018281417,0.314767834359,0.377000000001,0.45,0,0,2,1130,5
0.235696776211,0.165267131216,1.08140725943,0.474908566396,0.346000000001,0.45,2,2,2,1131,5
0.318305825326,0.151202699226,0.299847332394,1.05989702217,0.398000000001,0.45,3,3,2,1132,5
1.06322521624,0.42238837986,0.193802721558,0.292619810536,0.445000000001,0.45,0,0,2,1133,5
0.194564265152,0.137340937646,0.949532623763,1.02496951663,0.436000000001,0.45,3,3,2,1134,5
0.173951747812,0.0805729805289,0.230290438141,1.08707041731,0.0310000000006,0.45,1,3,-1,1135,5
0.253188677212,0.0957650513342,0.356524599109,1.00286315508,0.335000000001,0.45,2,3,-1,1136,5
0.210541222873,0.121876026388,0.915379453211,1.03922285381,0.330000000001,0.45,3,3,2,1137,5
0.228315800695,0.237213717892,1.03150442982,0.822759710286,0.521000000001,0.45,2,2,1,1138,5
1.23360384032,0.100357959934,0.141064923176,0.62029153268,0.431000000001,0.45,1,0,-1,1139,5
0.22122392136,0.178464683897,0.171069673571,1.02365330435,0.339000000001,0.45,3,3,2,1140,5
1.03135848918,0.224850925955,0.162981015146,0.428969958337,0.406000000001,0.45,0,0,2,1141,5
0.290159089574,0.260850283742,0.270005585107,1.02536349055,0.172000000001,0.45,2,3,-1,1142,5
0.195893978575,0.0669726953438,0.188196495886,0.621650005058,0.7,0.45,0,-1,0,1144,5
0.393516543929,0.352569631346,0.285362148604,0.415254609609,0.7,0.45,1,-1,0,1145,5
1.21154098166,0.315389521349,0.312960054724,0.497705961347,0.405000000001,0.45,0,0,2,1145,5
0.582142773593,0.59764475453,1.01573259067,0.728764818563,0.390000000001,0.45,2,2,2,1146,5
0.407040488931,1.06375068866,0.737405146501,0.196731061674,0.380000000001,0.45,1,1,2,1147,5
0.213237092181,0.147871343469,0.58288790543,1.28957777586,0.382000000001,0.45,3,3,2,1148,5
0.293240232455,0.257580895023,1.06437771537,0.419147427395,0.423000000001,0.45,2,2,2,1149,5
0.410829636908,0.329749900699,0.236337164674,1.13561750254,0.431000000001,0.45,3,3,2,1150,5
1.07396545326,0.41821269301,0.222733134867,0.237054905863,0.421000000001,0.45,1,0,-1,1151,5
0.229627747594,0.231071593523,1.00667324697,0.455313973932,0.514000000001,0.45,2,2,1,1152,5
0.368123388628,0.333658057927,0.26505060913,0.177699254249,0.7,0.45,0,-1,0,1154,5
1.21756731538,0.339444256297,0.265185291409,0.239245518063,0.0830000000006,0.45,3,0,-1,1154,5
0.918151223591,1.0913497134,0.268915558411,0.415129616829,0.406000000001,0.45,0,1,-1,1155,5
0.419669112221,0.133954218568,1.09411495684,0.271881597903,0.369000000001,0.45,1,2,-1,1156,5
1.1576020723,0.381305756888,0.215232891822,0.160544646835,0.382000000001,0.45,0,0,2,1157,5
0.457527573482,1.00406274979,0.297109890422,0.1823079858,0.420000000001,0.45,1,1,2,1158,5
0.316169368393,0.312083084288,1.01108417208,0.178093792026,0.365000000001,0.45,2,2,2,1159,5
0.213927410564,0.168214415659,0.885983970815,1.25731232713,0.399000000001,0.45,3,3,2,1160,5
0.340652238735,0.260326020921,1.05776901758,0.711403099211,0.464000000001,0.45,2,2,1,1161,5
1.03266373201,0.301055219366,0.143337622856,0.0825803419958,0.362000000001,0.45,1,0,-1,1162,5
0.436411756329,0.324997491003,0.2173190809,1.12273182668,0.418000000001,0.45,3,3,2,1163,5
1.11200467417,0.334227554285,0.332509424963,0.142423071304,0.417000000001,0.45,0,0,2,1164,5
0.430666736997,0.298693835814,1.06655526112,0.524855457438,0.328000000001,0.45,2,2,2,1165,5
1.07498003718,0.299117166672,0.197191285549,0.0753996264747,0.299000000001,0.45,0,0,2,1166,5
0.262802944304,0.185756368191,0.399254658498,1.01313497984,0.336000000001,0.45,3,3,2,1167,5
0.700786190322,1.06247782099,0.330959284912,0.361051990582,0.416000000001,0.45,1,1,2,1168,5
1.10147293936,0.293988908409,0.180669962703,0.176616735502,0.482000000001,0.45,0,0,1,1169,5
0.210800794215,0.132014464213,1.01802033382,0.605127099379,0.470000000001,0.45,2,2,1,1170,5
0.629232946546,1.29741001051,0.170595474417,0.0754687293153,0.419000000001,0.45,1,1,2,1171,5
0.333418964251,0.33787004844,0.26886077628,1.07300628647,0.414000000001,0.45,3,3,2,1172,5
0.240981604494,0.305083438459,1.02393699986,0.328865351027,0.418000000001,0.45,2,2,2,1173,5
0.216565441666,0.202826294969,0.381661003246,1.05057034007,0.419000000001,0.45,3,3,2,1174,5
0.749153155153,1.11360855702,0.164712699013,0.141118101278,0.493000000001,0.45,1,1,1,1175,5
1.10046741939,0.223055261305,0.203622470833,0.127586458055,0.361000000001,0.45,0,0,2,1176,5
0.293254067233,1.09260067034,0.281649829965,0.130979949283,0.463000000001,0.45,1,1,1,1177,5
0.236492292961,0.185957167341,0.353061032192,1.13026560332,0.370000000001,0.45,2,3,-1,1178,5
1.06895422749,0.185520498171,0.178909776955,0.0681067903111,0.403000000001,0.45,0,0,2,1179,5
0.451050359411,0.056521750836,0.410856624027,1.15036609169,0.512000000001,0.45,3,3,1,1180,5
1.08657324742,0.344020283546,0.34884439425,0.0757249972528,0.486000000001,0.45,0,0,1,1181,5
0.441051704724,1.1728683165,0.574488168801,0.52708452167,0.454000000001,0.45,1,1,1,1182,5
0.383339444655,0.333196912069,0.540288216465,1.12236596773,0.367000000001,0.45,3,3,2,1183,5
0.225635940615,0.206217784298,1.01584781974,0.400758062979,0.342000000001,0.45,2,2,2,1184,5
0.384476563585,1.11047281435,0.411057960549,0.195824778115,0.371000000001,0.45,1,1,2,1185,5
0.261548065673,0.191626409836,0.578959069631,1.028417743,0.389000000001,0.45,2,3,-1,1186,5
0.241878436713,0.11555649157,1.00772943772,0.653353953127,0.414000000001,0.45,3,2,-1,1187,5
0.31287820183,1.08192933208,0.33256656304,0.304910652469,0.452000000001,0.45,1,1,1,1188,5
