force_0,force_1,force_2,force_3,rt,rt_threshold,target_finger,selected_finger,score,trial,run
1.70127586607,1.12378290661,1.61871256745,1.32536343682,0.005,0.45,0,0,2,0,0
1.01030566449,0.847996163347,0.883838897566,0.416429573141,0.094,0.45,1,0,-1,1,0
2.00930509719,1.47579267103,2.19561536594,1.14525213142,0.7,0.45,3,-1,0,3,0
0.164099531047,0.01616179208,0.0504372334023,0.182704394629,0.7,0.45,2,-1,0,4,0
0.263602317175,1.09707408799,0.053623855044,0.122789731932,0.425,0.45,1,1,2,4,0
0.14037221128,0.0870774577355,1.12558679905,0.107051311876,0.369,0.45,2,2,2,5,0
0.117068063515,0.0247179261559,0.0169935148938,1.00310353555,0.361,0.45,3,3,2,6,0
0.117170790928,1.40202537373,0.0230196007604,0.180637313448,0.3,0.45,1,1,2,7,0
1.00269337043,0.0407316555864,0.0347216967287,0.11125741001,0.256,0.45,0,0,2,8,0
0.0758599739995,0.0321352051017,1.03704994398,0.15871558101,0.299,0.45,3,2,-1,9,0
0.0937176298591,1.07098686544,0.0469333634552,0.110639258324,0.401,0.45,0,1,-1,10,0
0.0297495615738,0.0185582105045,1.03727867341,0.0541867388466,0.333,0.45,2,2,2,11,0
4.17391757259,0.0187934085459,0.0260998714607,0.0760406170107,0.401,0.45,0,0,2,12,0
0.0121708291733,0.0357842196296,0.00361118549018,1.00028088001,0.353,0.45,3,3,2,13,0
0.117455320198,1.07805149944,0.00179044124788,0.000578203975417,0.369,0.45,1,1,2,14,0
0.0494468187563,0.0326694676669,1.65675095801,0.00307339810221,0.366,0.45,2,2,2,15,0
0.359778391337,3.62574683446,0.00782529164627,0.0283493514681,0.432,0.45,1,1,2,16,0
0.0588493293641,0.0312502308499,0.0246086389136,1.32662164838,0.431,0.45,3,3,2,17,0
0.0270540427136,0.0312500149057,1.27143660613,0.0440206504896,0.447,0.45,2,2,2,18,0
0.0239500170975,0.0251897810119,0.0110822386004,1.04577773457,0.48,0.45,3,3,1,19,0
2.0369118604,0.0346619356011,0.00500157511272,-0.199148985403,0.389,0.45,0,0,2,20,0
0.00129203525771,1.91516480503,0.0111637453624,0.0209542582169,0.413,0.45,1,1,2,21,0
1.16076143807,0.0155737528607,0.0163796433203,0.0483473355954,0.407,0.45,0,0,2,22,0
0.00476311922039,0.0380567818438,1.10358876908,-0.0707023473042,0.329,0.45,2,2,2,23,0
0.0322247808065,1.52204287538,0.00783637263532,-0.00659496653383,0.383,0.45,0,1,-1,24,0
0.0381270528263,1.40293869339,1.36459399896,0.00787807057074,0.516,0.45,1,1,1,25,0
0.0409069710004,0.015875721911,1.58347178297,-0.0205964324984,0.369,0.45,2,2,2,26,0
0.0405642823721,0.00931591529164,-0.00621437691714,1.07854933662,0.266,0.45,3,3,2,27,0
0.067444847381,1.02209871502,0.0643435777972,-0.0367836397987,0.24,0.45,1,1,2,28,0
0.0447810420193,0.0234559969542,0.0268124020066,1.01426550768,0.452,0.45,3,3,1,29,0
0.0406197120771,0.0462809841919,0.0487549205222,0.0335243597383,0.7,0.45,2,-1,0,31,0
1.14756308524,0.0323796199371,0.0250993374971,0.0391087327802,0.326,0.45,0,0,2,31,0
0.337136211635,0.346001574606,0.300686847187,1.05501568919,0.57,0.45,3,3,1,32,0
1.19027329808,0.334014067482,0.19071422621,0.15731850946,0.428,0.45,0,0,2,33,0
0.185155683935,0.0795691670121,1.16167224697,0.224667028684,0.339,0.45,2,2,2,34,0
1.13029402312,0.0310933827123,0.196936689869,0.438950245981,0.319,0.45,1,0,-1,35,0
1.1746808838,0.529577124208,0.0995222601819,0.182397174928,0.3,0.45,0,0,2,36,0
0.394898469675,0.0660014904734,0.0566396232379,0.270508412199,0.7,0.45,3,-1,0,38,0
1.02979918812,0.0273668792263,0.034429895016,0.279662171703,0.311,0.45,1,0,-1,38,0
1.10483140281,0.0809863792928,0.0315657583291,0.339297790382,0.272,0.45,2,0,-1,39,0
1.14927987933,0.0313871634514,0.0148348942261,0.198122032388,0.305,0.45,1,0,-1,40,0
0.123679826995,0.0359488969217,0.00794192824981,1.01245353961,0.451,0.45,3,3,1,41,0
0.124695002258,0.0373719795305,1.01208804133,0.20475377429,0.396,0.45,2,2,2,42,0
0.120371365054,0.029296743449,0.712530038236,1.07730748451,0.502,0.45,3,3,1,43,0
1.03471939503,0.0176267449595,0.0513942225967,0.0333439416454,0.381,0.45,0,0,2,44,0
0.123472480994,0.0657788551365,1.10905014336,0.127119519573,0.311,0.45,2,2,2,45,0
1.12369910378,0.0492686951873,0.0494071485142,0.18403879377,0.361,0.45,0,0,2,46,0
0.13421782519,1.18088370506,0.0766270389247,0.272975133214,0.355,0.45,1,1,2,47,0
1.07979879176,0.154709457653,0.0746826966529,0.197108335038,0.418,0.45,0,0,2,48,0
0.122473993204,0.139289663519,1.10165075047,0.107204623412,0.372,0.45,2,2,2,49,0
0.116447704865,0.0184201773383,0.0618439254925,1.11567128846,0.378,0.45,3,3,2,50,0
0.114353167979,1.11706794331,0.0681663543117,0.152075130923,0.295,0.45,1,1,2,51,0
0.0848622039283,0.0590340483106,1.06651884303,0.0948574943486,0.278,0.45,3,2,-1,52,0
1.02860692386,0.0327606018695,0.0475633392286,0.132850972994,0.284,0.45,2,0,-1,53,0
0.045081150314,1.23258719728,0.145441339409,0.22843846688,0.395,0.45,1,1,2,54,0
0.0427893267263,0.0392431127032,1.11812251292,0.123273241355,0.31,0.45,2,2,2,55,0
1.05039160436,0.0390677356219,0.0411891909561,0.450349073521,0.404,0.45,0,0,2,56,0
0.487619632035,1.03105258247,0.0540306701928,0.120292552583,0.445,0.45,1,1,2,57,0
1.13903774103,0.0258703964576,0.0500874485828,0.0903688681339,0.403,0.45,0,0,2,58,0
0.062501137393,0.0342144944631,0.00318168048012,1.01451907097,0.425,0.45,3,3,2,59,0
1.06745014576,0.0351133521227,0.000864489819939,0.0347758312424,0.499,0.45,0,0,1,60,0
0.0462472546755,1.01397173431,0.0283605401093,0.0663908709735,0.446,0.45,1,1,2,61,0
0.0568443149046,0.054698068564,0.0108818180578,1.09207483004,0.424,0.45,3,3,2,62,0
0.0656797113169,1.02983003714,0.391435766648,0.13348256639,0.428,0.45,2,1,-1,63,0
0.0586921682658,0.0392001073552,0.0171488234671,0.682145629083,0.7,0.45,3,-1,0,65,0
0.0230714922363,1.05396406951,0.0034948504262,-0.023371853562,0.45,0.45,1,1,1,65,0
0.0606198513521,0.0234564765754,1.21987019149,0.0505702685707,0.389,0.45,2,2,2,66,0
0.0499666644767,1.12498114705,0.0863502245544,-0.00534236578642,0.461,0.45,1,1,1,67,0
1.28482868345,0.0643229758819,0.0424048847002,-0.1562287511,0.348,0.45,0,0,2,68,0
0.0468760833442,0.032925155004,0.0027940795799,1.34858927019,0.403,0.45,3,3,2,69,0
1.27044888421,0.0876902909274,0.00898706250305,3.51745192795e-06,0.356,0.45,0,0,2,70,0
0.0379535517286,0.0370307986416,1.1022659238,-0.0925759144685,0.351,0.45,2,2,2,71,0
1.01157609459,0.0221509081667,-0.0236214300911,-0.0130908722574,0.374,0.45,0,0,2,72,0
0.0585778210012,0.0206414953984,0.0453791486518,-0.0210108727399,0.7,0.45,1,-1,0,74,0
0.0324692012077,1.03710958484,0.0141428172364,-0.0951268864567,0.161,0.45,2,1,-1,74,0
0.046867728822,0.0251587074871,0.0158012900773,1.02008091122,0.321,0.45,3,3,2,75,0
0.037051695245,1.1267829077,0.0133751107571,0.00664597124289,0.304,0.45,1,1,2,76,0
0.0396880488217,0.0245105882031,0.0245076721814,0.0336909870203,0.7,0.45,3,-1,0,78,0
0.0513286684111,0.0109348821138,1.01025679887,0.0233270315165,0.515,0.45,2,2,1,78,0
3.16078011667,0.0110895135218,0.012352953158,0.00116262492429,0.391,0.45,0,0,2,79,0
0.0332524355357,0.0337614746348,0.024285013792,1.45685035087,0.443,0.45,3,3,2,80,0
1.09905984101,0.0214282884121,0.0513544011957,0.0132421588521,0.455,0.45,0,0,1,81,0
0.0472187209214,0.0386212720258,1.12645308872,0.00118354594653,0.328,0.45,2,2,2,82,0
0.0511692714308,1.39958538852,0.0265171097955,0.0272044085305,0.388,0.45,1,1,2,83,0
1.90944451959,0.0234507706063,0.002743688839,-0.0105358974367,0.314,0.45,0,0,2,84,0
-0.033871019833,1.60704289663,0.0812113752321,-0.197984206146,0.445,0.45,1,1,2,85,0
0.0407165685305,0.023754482801,1.12236719476,-0.0453757294026,0.341,0.45,2,2,2,86,0
0.0407835873004,0.0234592091678,0.0197629246315,1.02828050455,0.346,0.45,3,3,2,87,0
0.211477336357,1.16435108593,0.0398494416612,-0.0135533000115,0.344,0.45,1,1,2,88,0
0.0470190859333,0.0292675360261,0.0197273598757,1.2182744226,0.464,0.45,3,3,1,89,0
0.0369553167654,0.0382588421808,1.03828448159,0.0058068993786,0.381,0.45,2,2,2,90,0
1.02821774975,0.0273207127971,0.0526894695507,0.0483657050029,0.366,0.45,0,0,2,91,0
0.00771943615093,0.044420932122,0.452265715469,1.0102266717,0.443,0.45,3,3,2,92,0
0.131770936951,0.0248287205351,0.000529186111041,0.00965328168543,0.7,0.45,0,-1,0,94,0
0.0431250425352,0.0360907459725,1.02516546549,-0.102909890267,0.372,0.45,2,2,2,94,0
0.0389953208098,1.16230522012,0.0189936932108,0.0317773585458,0.37,0.45,1,1,2,95,0
1.0428966843,0.0361712638886,0.0263973148023,-0.0421369946326,0.429,0.45,0,0,2,96,0
0.0473740523684,0.0549565131587,1.01308269798,-0.0367742559424,0.336,0.45,2,2,2,97,0
0.0428124911117,1.05395570741,0.014363704116,0.0170640095038,0.503,0.45,1,1,1,98,0
0.0474366869187,0.0312547473833,0.0162109517816,1.0146381747,0.528,0.45,3,3,1,99,0
0.0390378101925,1.07132352706,0.053663790808,0.0737337775312,0.507,0.45,1,1,1,100,0
0.039620438952,0.0310969232718,1.00549917656,0.0335919808869,0.386,0.45,2,2,2,101,0
0.0470925564602,0.0237794941681,0.0309189716643,1.1592337188,0.393,0.45,3,3,2,102,0
0.0568132341449,0.044949782576,0.932482240264,1.13834607162,0.438,0.45,2,3,-1,103,0
1.14817588976,0.036511094509,-0.00166812330549,-0.0077080976245,0.438,0.45,0,0,2,104,0
0.0200809516689,0.0237969273907,0.0773850289873,1.06853203192,0.473,0.45,3,3,1,105,0
1.09238546136,0.0202696693299,0.0144233846406,0.0289273705858,0.46,0.45,0,0,1,106,0
-0.12892165841,3.7401290478,0.0773801633453,0.00785056680874,0.44,0.45,1,1,2,107,0
1.1587802819,0.0284162901152,0.0363058944377,0.0663251424178,0.52,0.45,0,0,1,108,0
0.0243425929831,0.041200293433,0.00687821601849,1.10149950195,0.399,0.45,3,3,2,109,0
0.0310195778161,2.37477642823,0.00582865254429,0.0293774377452,0.378,0.45,1,1,2,110,0
0.0302716161846,0.0100720828049,1.14427553434,0.699941691909,0.324,0.45,2,2,2,111,0
-0.0731337642544,1.02287600508,-0.121448163562,-0.20641192473,0.407,0.45,1,1,2,112,0
0.0435193191149,0.0234381467938,0.0162098854359,1.12838053629,0.459,0.45,3,3,1,113,0
-0.0105252822739,0.00409680911539,1.00599049874,-0.472044140934,0.425,0.45,2,2,2,114,0
0.0354566552092,0.0443663988228,0.021042035335,1.12515266571,0.536,0.45,3,3,1,115,0
1.02740421449,0.0366803904461,0.0144448892302,0.0423620891355,0.443,0.45,0,0,2,116,0
0.0280141869102,1.34171375311,0.00161549160661,0.0609099627284,0.388,0.45,1,1,2,117,0
1.0159477834,0.0219593936237,0.00838750400203,0.0278362113416,0.45,0.45,0,0,1,118,0
0.0860061638923,0.0424515175939,1.09752304554,0.0070769378784,0.45,0.45,2,2,1,119,0
1.28051567879,0.0419313739743,0.0128529008467,0.0218713881037,0.501,0.45,0,0,1,120,0
0.0441276498806,0.0430605844454,1.10953146077,0.0309542914476,0.439,0.45,2,2,2,121,0
0.0657154201352,1.21415952257,0.00515504513751,-0.0213388805137,0.458,0.45,1,1,1,122,0
0.0504664931417,0.0312524548795,1.10667200433e-05,1.09890275025,0.466,0.45,3,3,1,123,0
0.0410344723627,1.03148469569,-0.0128027279443,0.00289793489438,0.424,0.45,1,1,2,124,0
0.0436119796088,0.0297725887974,1.11309163128,0.177475722137,0.317,0.45,2,2,2,125,0
0.0500773216685,0.0312722818818,0.0201685891752,1.13074719783,0.326,0.45,3,3,2,126,0
-0.0457964161204,-0.00979266021008,4.66842082794,-0.237913643501,0.403,0.45,2,2,2,127,0
1.06880328738,0.0140451534091,0.0192600186671,-0.0272360391194,0.486,0.45,0,0,1,128,0
0.0296473422418,0.0273334632389,0.0127147721152,1.0237887027,0.475,0.45,3,3,1,129,0
1.22693357471,0.0290274815658,0.0225234015878,0.0168493285021,0.602,0.45,0,0,1,130,0
-0.142123873427,2.7555298695,0.00525603935885,0.00647359793378,0.453,0.45,1,1,1,131,0
1.04462594037,0.0303016876197,-0.00654850818069,-0.0635883511197,0.497,0.45,0,0,1,132,0
0.0920094025548,0.0524362433593,1.05064998458,-0.087899795976,0.383,0.45,2,2,2,133,0
0.0912620867101,0.0386433646337,-0.00746416826391,1.24756294404,0.375,0.45,3,3,2,134,0
0.0713794644648,1.16856951676,-0.0231155778847,-0.0464527855475,0.362,0.45,1,1,2,135,0
0.0198490100897,0.0270513927144,1.16432443757,0.265169579438,0.373,0.45,2,2,2,136,0
0.0591579406987,1.24711641537,0.00622371590336,0.0113877605201,0.377,0.45,1,1,2,137,0
0.0585125486513,0.0312502718735,-0.0175181927707,1.16982009163,0.424,0.45,3,3,2,138,0
0.0151468982436,0.0385011070908,1.05604936096,0.00528974020261,0.379,0.45,2,2,2,139,0
1.13396742204,0.0390004444001,0.0286230466886,-0.0176169205876,0.386,0.45,0,0,2,140,0
0.0356774515461,0.0314036245293,-0.0226986691755,1.27464299024,0.502,0.45,3,3,1,141,0
1.15442218568,0.037843182922,0.0044960378893,-0.0124102691692,0.444,0.45,0,0,2,142,0
-0.0500389213925,1.25141408578,-0.0512947680143,0.0161070607909,0.456,0.45,1,1,1,143,0
1.89735085334,0.00475099875564,-0.0189218781635,-0.0125746694268,0.388,0.45,0,0,2,144,0
0.0635476368052,0.035527390599,1.00717473339,0.0297773258515,0.375,0.45,2,2,2,145,0
0.0401886559971,2.7415543418,-0.0183320808816,-0.154254716994,0.433,0.45,1,1,2,146,0
0.0470876108374,4.70845873135e-06,-0.0105206819506,1.00956845487,0.528,0.45,3,3,1,147,0
0.298156256046,2.1695489822,0.0333494264631,0.0129497436159,0.436,0.45,1,1,2,148,0
0.0483639431816,0.0203450690497,1.1941799773,-0.0183564878893,0.349,0.45,2,2,2,149,0
0.0271879234635,0.00046206588011,0.0287515511533,1.05393562392,0.392,0.45,3,3,2,150,0
0.0131342189619,5.7633566882e-05,1.07859632239,0.042536312201,0.358,0.45,2,2,2,151,0
3.18344860095,0.0253814455398,0.00788169117313,-0.00807660487282,0.295,0.45,0,0,2,152,0
0.00978318726546,4.42709087874,-0.0164974616431,-0.0431669719478,0.477,0.45,1,1,1,153,0
1.17706599075,0.000918102556787,-0.00624036902285,-0.0429431348793,0.454,0.45,0,0,1,154,0
0.0468752197679,0.0216684530427,0.00587534361259,1.0015089513,0.485,0.45,3,3,1,155,0
1.54529439986,0.0448523175898,-0.0133589817965,-0.104380452109,0.43,0.45,0,0,2,156,0
0.0345249144006,0.026497774853,1.03989268007,-0.0316252846192,0.442,0.45,2,2,2,157,0
0.0408125817834,0.0308534759491,0.00864201304933,1.19917586392,0.528,0.45,3,3,1,158,0
-0.0108033605735,1.46409440308,0.0791929461195,1.27800105085,0.453,0.45,1,1,1,159,0
0.0149355781339,-0.00689975966168,0.00549640169543,1.82790254731,0.475,0.45,3,3,1,160,0
0.0277448273961,0.0257752948169,1.4667109775,0.0436359126335,0.389,0.45,2,2,2,161,0
0.0324686915045,1.09946630702,0.0592628843527,0.162381064983,0.421,0.45,1,1,2,162,0
0.0274141261166,0.0233279884828,1.00821206781,0.0161066940431,0.498,0.45,2,2,1,163,0
1.0563531486,0.0286557424586,0.00649970741737,-0.12171007016,0.489,0.45,0,0,1,164,0
0.0148270293511,2.1517567623,-0.0086780727908,-0.0172403897275,0.438,0.45,1,1,2,165,0
2.15407207037,0.00797939728793,-0.0132423685293,-0.0160559163012,0.493,0.45,0,0,1,166,0
0.0268437558524,0.026894112568,-0.0155738229542,1.28405628604,0.499,0.45,3,3,1,167,0
1.68128409762,0.0290428685506,-0.00447826927946,-0.00299069580876,0.424,0.45,0,0,2,168,0
0.0277376660439,1.79232665501,-0.016261062898,0.00393110189156,0.427,0.45,1,1,2,169,0
0.00997314275959,0.0390697111443,-0.00972818210343,1.22948423695,0.529,0.45,3,3,1,170,0
-0.00733584317019,0.0101261316652,1.74436574948,-0.167624616652,0.506,0.45,2,2,1,171,0
0.00312619955755,0.000917036297824,-0.00661530134275,2.49500775154,0.676,0.45,3,3,1,172,0
0.00504608209009,1.22580344499,0.00122005242487,0.0241231331962,0.584,0.45,1,1,1,173,0
0.00985115155844,0.0266422830902,1.00993831334,0.0399220050459,0.469,0.45,2,2,1,174,0
-0.0398951770835,1.36263189162,0.0125788847021,0.0289471116664,0.451,0.45,1,1,1,175,0
1.2985569228,0.0371161590259,-0.0206077425863,-0.0393134378005,0.382,0.45,0,0,2,176,0
0.0425165291817,0.00699124181909,-0.0340488674108,1.17457254159,0.437,0.45,3,3,2,177,0
1.08051526515,0.0280300439258,-0.0448947696937,0.00653965568544,0.473,0.45,0,0,1,178,0
0.00782010197881,0.02975150143,1.01362372343,-0.00340351837947,0.314,0.45,2,2,2,179,0
1.15996121031,0.119304225393,0.00530399137358,-0.143292606161,0.428,0.45,0,0,2,180,0
-0.0211702185604,0.035734407382,2.05080493612,-0.0117082689795,0.41,0.45,2,2,2,181,0
-0.073571985803,3.24544171006,6.92997383451e-05,-0.00937641376987,0.442,0.45,1,1,2,182,0
0.0295604995152,0.0145201360751,-0.0291188122044,1.11451662765,0.411,0.45,3,3,2,183,0
0.039897942206,0.00900612177783,1.05939726338,0.000352060437155,0.352,0.45,1,2,-1,184,0
0.0325960570869,0.0291999652422,1.02966879703,-0.0359890761609,0.406,0.45,2,2,2,185,0
0.0335990056753,0.0202764185726,0.0174174140062,1.30795670528,0.316,0.45,3,3,2,186,0
1.13874802763,0.0302414633793,-0.0421639697568,-0.192712203615,0.345,0.45,0,0,2,187,0
0.034388320589,0.0283335137665,1.09635143147,-0.0519563350758,0.308,0.45,3,2,-1,188,0
0.030422075134,0.0309215936134,1.09696444825,-0.0820999965291,0.299,0.45,2,2,2,189,0
1.37717558192,0.0214249220942,-0.0125657652047,0.00277787237948,0.318,0.45,0,0,2,190,0
0.0234433571305,1.35018035165,0.0601703035436,-0.013461427506,0.485,0.45,1,1,1,191,0
1.01369689735,0.0435134692708,0.000513459597401,-0.125597711906,0.488,0.45,0,0,1,192,0
0.0573183939114,0.0281283605977,-0.006961007914,1.36240081035,0.388,0.45,3,3,2,193,0
0.0351548832702,1.4042862633,-0.000108294707003,0.00785371001062,0.375,0.45,1,1,2,194,0
0.0657482300296,0.0349220339711,1.17575426935,-0.0188464755962,0.348,0.45,2,2,2,195,0
0.0201083624044,4.41983871813,-0.0261840025338,-0.115410958817,0.369,0.45,1,1,2,196,0
0.0099445439287,3.12424883251e-05,-0.0151511406938,1.5103438449,0.52,0.45,3,3,1,197,0
0.0117754186882,0.00612030569515,1.00405540225,-0.227431639124,0.47,0.45,2,2,1,198,0
3.75616316124,0.00924387440022,-0.00290788196215,-0.0394108006436,0.373,0.45,0,0,2,199,0
0.00978871054612,0.0311923207091,1.18848166182,-0.0320358585996,0.301,0.45,2,2,2,200,0
0.0154976177504,0.0312449176625,0.0112743874046,1.21319100105,0.383,0.45,3,3,2,201,0
1.13375203873,0.0215303385521,-0.00284842360459,-0.0514351269644,0.424,0.45,0,0,2,202,0
0.0246499769211,2.31211744564,-0.0162917332143,-0.0394254416664,0.457,0.45,1,1,1,203,0
1.17848137566,0.00637253848555,-0.0531208613736,-0.220735218347,0.424,0.45,0,0,2,204,0
0.0391465250971,1.08362707239,-0.00852456595988,-0.0304439539277,0.433,0.45,1,1,2,205,0
0.0177791246548,0.0315833035749,-0.0205022638082,1.01069450211,0.433,0.45,3,3,2,206,0
0.0459808469379,0.0373686474284,1.27750171226,-0.0842663151124,0.412,0.45,2,2,2,207,0
0.00176881324531,0.030216412189,0.00070729691996,1.1173829972,0.467,0.45,3,3,1,208,0
0.0122172420524,1.13963990037,0.575647350003,0.00220018983964,0.517,0.45,1,1,1,209,0
0.00484815516892,0.0296564172657,1.03550215933,-0.0411840851817,0.44,0.45,2,2,2,210,0
0.0297760815463,1.13456250803,0.173192822629,-0.0346760749013,0.456,0.45,1,1,1,211,0
2.40173389726,0.0203615959796,0.0105328398655,-0.00936297115367,0.324,0.45,0,0,2,212,0
0.0377406970798,0.0204284878098,0.0545357953849,1.15531546109,0.367,0.45,3,3,2,213,0
1.12852613849,0.013166772068,-0.0113624132913,0.0714081495139,0.405,0.45,0,0,2,214,0
0.0515742592076,0.0360273855706,1.08034128552,0.112574737818,0.286,0.45,2,2,2,215,0
0.0523833394908,1.18766265716,-0.00769570098397,-0.0493381506413,0.352,0.45,0,1,-1,216,0
0.0444124984036,1.30300971539,0.0267000047192,-0.00698534982909,0.46,0.45,1,1,1,217,1
0.0460762235256,0.0388338126578,1.27233878562,0.0146906072505,0.34,0.45,2,2,2,218,1
1.36332512313,0.0359004480808,0.00932842337001,0.00237822379452,0.431,0.45,0,0,2,219,1
0.024194998656,0.0313995730324,0.0254360041997,1.16916359502,0.439,0.45,3,3,2,220,1
0.0439622618986,0.0301175564112,1.0139200945,0.0316458222147,0.394,0.45,2,2,2,221,1
0.0416731295608,0.0293960550691,-0.0153288284453,1.08249752386,0.472,0.45,3,3,1,222,1
2.52659501047,0.0289982181626,0.00526081189737,0.0159315031485,0.428,0.45,0,0,2,223,1
0.0423576140483,0.0580993078352,1.0302195381,0.288768331525,0.385,0.45,2,2,2,224,1
0.154812496159,1.63241451442,0.0342788278019,0.0128512032463,0.371,0.45,1,1,2,225,1
3.20620924007,0.0158572686511,0.0124077829161,0.0210222721008,0.373,0.45,0,0,2,226,1
0.0583338542534,1.03353170319,0.0162746714212,0.0643822450701,0.526,0.45,1,1,1,227,1
0.0718106733954,0.036090970744,0.00624594577541,1.07679966492,0.523,0.45,3,3,1,228,1
0.0710423790921,1.00296722268,0.00104679618048,0.0391776606467,0.471,0.45,1,1,1,229,1
0.0648955656911,0.0292172593457,0.0377253837285,0.00514388487558,0.7,0.45,2,-1,0,231,1
0.0760139747374,0.0308601290494,0.0320438227326,1.54952289897,0.526,0.45,3,3,1,231,1
1.15125112063,-0.0306986759497,0.0645123491621,0.243304596251,0.429,0.45,0,0,2,232,1
0.0441833157896,0.048325652154,0.0215180091247,1.04914113301,0.429,0.45,3,3,2,233,1
0.0485350345925,0.0423463531378,1.05128187158,0.0964209462092,0.446,0.45,2,2,2,234,1
3.90240289986,0.0821435752548,0.00784698927024,0.0312151438659,0.645,0.45,0,0,1,235,1
0.0250737846392,0.037743768914,1.1835483592,0.0954122537224,0.479,0.45,2,2,1,236,1
0.0529351961915,1.01058689896,0.0297093280447,0.00850519893783,0.387,0.45,1,1,2,237,1
1.54206466791,0.0308146489717,0.0190172900662,0.038630475069,0.328,0.45,0,0,2,238,1
0.0461906792015,1.15886883905,-0.0140279474786,0.0477974480081,0.497,0.45,1,1,1,239,1
0.0591873532188,0.0312505031753,0.168933891606,0.0841444358193,0.7,0.45,3,-1,0,241,1
0.0581576087579,0.0312502261145,0.031604722466,1.17145787693,0.224,0.45,1,3,-1,241,1
0.0549364941602,0.0216459977784,1.05462750184,-0.129403003026,0.398,0.45,2,2,2,242,1
1.7564794658,0.0141284031557,0.0214330427949,-0.0272463552896,0.371,0.45,0,0,2,243,1
0.0578071585269,0.0526911279617,0.0479667460109,1.15994933053,0.372,0.45,3,3,2,244,1
3.30382670864,0.0409516968143,0.0100445225551,0.0317258267282,0.474,0.45,0,0,1,245,1
0.043733170023,0.0511826338372,0.02413105532,-0.00337035081861,0.7,0.45,2,-1,0,247,1
0.0521902402484,0.0438999461051,0.00983776098607,0.284737867951,0.7,0.45,3,-1,0,248,1
0.055126390021,1.26149887488,0.0012574305385,0.00488161229247,0.432,0.45,1,1,2,248,1
0.0212241270573,0.0155659288373,0.0159814096875,1.38402327674,0.691,0.45,3,3,1,249,1
0.0591149077466,0.0503246308128,0.0231215369413,-0.00781254288121,0.7,0.45,2,-1,0,251,1
-0.0323662280505,1.06642851819,0.0233784122449,-0.00650251219249,0.537,0.45,1,1,1,251,1
1.07780040816,0.0244161676901,-0.0185492453709,-0.160943299055,0.328,0.45,0,0,2,252,1
0.0360569349432,1.01167955932,0.0217626243944,-0.0483103701827,0.465,0.45,1,1,1,253,1
0.0450737728809,0.0318703527065,-0.00077954241768,1.10970056299,0.401,0.45,3,3,2,254,1
1.42304514026,0.0239192419555,0.0110717264151,-0.0156489808108,0.412,0.45,0,0,2,255,1
0.0540354823281,0.0300232182524,1.00978934817,0.128264723839,0.32,0.45,2,2,2,256,1
0.0612829525182,0.0423342328881,0.0080741213465,1.1293612296,0.293,0.45,3,3,2,257,1
0.0779937846991,0.0536632477906,1.15411159364,-0.0732221285614,0.408,0.45,2,2,2,258,1
1.00060008028,0.038502732442,0.00273240657074,0.00831176591575,0.339,0.45,0,0,2,259,1
-0.0212909630915,1.8055400481,-0.00900756924125,-0.00416016384946,0.441,0.45,1,1,2,260,1
0.0565796645554,0.0307372271171,1.01633685839,-0.0157604591596,0.375,0.45,2,2,2,261,1
-0.0130440296429,1.45244560088,-0.0097487249654,-0.144834238441,0.473,0.45,1,1,1,262,1
1.34668489641,0.0324487743706,-0.00769263687872,-0.017137953053,0.385,0.45,0,0,2,263,1
0.0349928765489,0.0354733319792,0.0303259422353,1.06963243049,0.458,0.45,3,3,1,264,1
0.0676725791029,1.0507332112,0.0471153985951,-0.129589637654,0.57,0.45,1,1,1,265,1
2.68412542667,0.0313400650809,0.00798407350893,-0.024455325756,0.437,0.45,0,0,2,266,1
0.0214400980255,0.0283107579488,-0.0128197105574,1.73345952699,0.315,0.45,3,3,2,267,1
0.0324203674132,0.0401997933445,1.03742563723,0.0424011365753,0.444,0.45,2,2,2,268,1
0.0483441627635,0.0352514089059,-3.14472835455e-05,1.29219133866,0.483,0.45,3,3,1,269,1
1.52224852391,0.0466011158616,-0.00651533853247,-0.0967269245576,0.4,0.45,0,0,2,270,1
0.0147833189886,0.0400683311857,1.00350996135,0.0449638451899,0.341,0.45,2,2,2,271,1
0.0363537610828,1.02133149969,0.041831126245,0.0539201151635,0.341,0.45,1,1,2,272,1
0.0560871048265,0.0391445586336,0.0046548766828,1.02632332921,0.46,0.45,3,3,1,273,1
-0.0684464179467,1.05969378105,0.515816861488,0.0228861930454,0.462,0.45,1,1,1,274,1
0.0250956587521,0.0234292208042,1.03540281989,0.0676885772837,0.406,0.45,2,2,2,275,1
1.30822997153,0.0208681683357,-0.0118566310926,-0.0732365365608,0.501,0.45,0,0,1,276,1
0.0340759662216,1.07022249003,-0.0013187476892,-0.0195271143282,0.508,0.45,1,1,1,277,1
0.0480252682262,0.0312608554355,-0.00683173486415,1.16353906288,0.432,0.45,3,3,2,278,1
1.20427499136,0.028584454538,0.00133591578257,-0.00913497455663,0.438,0.45,0,0,2,279,1
0.0591527892761,0.0332004015498,1.00952987123,-0.0984236972457,0.348,0.45,2,2,2,280,1
1.35789425743,0.0574105705539,-0.0201778637464,-0.0800147333727,0.533,0.45,0,0,1,281,1
0.040917723318,0.0338274153627,0.0147324318832,1.05350282568,0.566,0.45,3,3,1,282,1
0.0632346118322,0.0406921914077,0.115549713443,-0.0273613278522,0.7,0.45,2,-1,0,284,1
0.0468654088005,0.0453789155055,0.0139814584834,1.31425350982,0.465,0.45,3,3,1,284,1
0.080894266111,1.09545101588,0.140786206061,-0.0263890785832,0.532,0.45,1,1,1,285,1
1.64251886183,0.0263808188486,0.00831301855691,-0.008590515449,0.383,0.45,0,0,2,286,1
0.0618260006155,1.29963753358,0.0419361178286,0.0189950379545,0.591,0.45,1,1,1,287,1
0.0600681269241,0.0468768387629,1.06052928225,0.0332018056715,0.44,0.45,2,2,2,288,1
0.053114483228,1.06757461819,2.93079541069e-05,0.00569885488231,0.548,0.45,1,1,1,289,1
1.15416223311,0.0442460451662,5.15414093205e-06,0.0121160341362,0.354,0.45,0,0,2,290,1
0.0601281600663,0.0467258250632,1.06962001625,0.00717084798688,0.433,0.45,2,2,2,291,1
0.0600001700388,0.0468563802065,0.0112025675108,1.13372349662,0.398,0.45,3,3,2,292,1
1.17275340243,0.0455579415851,-0.00272827082266,-0.0138125182866,0.397,0.45,0,0,2,293,1
0.0469206429349,0.0428925918642,-0.000335634234047,0.128424819205,0.7,0.45,3,-1,0,295,1
0.0533032763246,0.0452099689442,1.08005417765,0.00527869115698,0.523,0.45,2,2,1,295,1
1.37598338019,0.035611899731,5.14785247379e-05,0.018064075282,0.378,0.45,0,0,2,296,1
0.0294795296969,1.05297727159,-0.0441830628102,-0.0604254868479,0.476,0.45,1,1,1,297,1
0.0695869714313,0.036465792401,1.01521769811,-0.0763886313618,0.386,0.45,2,2,2,298,1
0.0545324430102,1.03019419714,0.00413862123927,-0.00113511805941,0.462,0.45,1,1,1,299,1
0.0603845733854,0.0312528659528,-0.00699252339471,1.24984432992,0.473,0.45,3,3,1,300,1
0.0627904040051,1.15317878093,0.0115941943029,0.00916330656495,0.469,0.45,1,1,1,301,1
1.11670523572,0.0323664271707,0.0178184475156,0.00261519639873,0.358,0.45,0,0,2,302,1
0.0227073053188,0.0317468292867,0.0109502439118,1.08503659523,0.436,0.45,3,3,2,303,1
0.0319979363871,0.0312127708693,1.10081662373,0.047612348819,0.44,0.45,2,2,2,304,1
1.01400433694,0.0472208519337,9.69019888304e-05,0.0033746473685,0.368,0.45,0,0,2,305,1
0.034951405747,0.0396761926442,1.08853162863,-0.0747668935042,0.358,0.45,2,2,2,306,1
0.0582227260279,0.0461820252925,-0.00809008040423,1.0031328064,0.372,0.45,3,3,2,307,1
3.46013171897,0.0433949665172,0.00478815418288,0.000136196447097,0.394,0.45,1,0,-1,308,1
0.0218631298041,0.0310325703056,1.11184834958,0.00120815269784,0.499,0.45,2,2,1,309,1
0.0192524582654,1.18980195252,0.0270806853676,0.0981742028581,0.481,0.45,1,1,1,310,1
0.0523825999235,0.0313243354957,0.00325392798936,1.03290124651,0.443,0.45,3,3,2,311,1
1.12595793539,0.028158819296,-0.00379163838304,-0.040603019306,0.406,0.45,0,0,2,312,1
0.0994495130602,1.27885309847,-0.0147492312872,-0.0130170736847,0.481,0.45,1,1,1,313,1
0.059697956371,0.0392595104778,1.08702282993,-0.015941614028,0.416,0.45,2,2,2,314,1
0.058997015614,0.0390819490318,0.00303219836734,1.04133926192,0.336,0.45,3,3,2,315,1
1.70970956262,0.0717065817179,0.0131625631366,0.0223683734521,0.372,0.45,0,0,2,316,1
0.0344054642593,0.039983071365,1.00804861541,0.089211011427,0.342,0.45,2,2,2,317,1
1.06063108064,0.0247300067962,0.0253925357986,-0.0225169444928,0.435,0.45,0,0,2,318,1
0.0289925784937,0.0313127688779,-0.00863675537939,0.0356044116995,0.7,0.45,3,-1,0,320,1
0.0316394889983,0.0318486777525,-0.000918670642588,0.023725303614,0.7,0.45,2,-1,0,321,1
0.0620795765422,1.11535102057,0.0134789405502,0.0234747247415,0.655,0.45,1,1,1,321,1
1.09810669067,0.0340766302817,0.0150645518835,0.0217920412882,0.385,0.45,0,0,2,322,1
0.0687352115938,0.0253554276943,1.10894014025,0.041498498962,0.344,0.45,1,2,-1,323,1
0.0745028734983,0.0418384336104,1.12333562911,0.00604164637056,0.337,0.45,3,2,-1,324,1
0.0747097640781,1.0682634546,0.00168475048802,0.0133312135461,0.418,0.45,1,1,2,325,1
0.0765735896451,0.0332355356662,1.31311762203,-0.29269550689,0.487,0.45,2,2,1,326,1
2.27571944768,0.0405374472368,0.00445467826184,-0.0194034961034,0.431,0.45,0,0,2,327,1
0.0482195835792,0.0447273279775,-0.0115827282932,1.01205122527,0.533,0.45,3,3,1,328,1
1.10723270734,0.0523258578075,0.0038207226974,0.031306519285,0.419,0.45,0,0,2,329,1
0.0393316121275,0.03382306184,1.09188420667,0.149855090596,0.335,0.45,2,2,2,330,1
0.0583476910793,0.0389169008511,0.00247795676896,1.21390142674,0.458,0.45,3,3,1,331,1
0.0546795392476,1.14889775747,-0.00292443716056,0.0115282513586,0.389,0.45,1,1,2,332,1
1.25349669211,0.0506896046767,0.0133010202139,0.0328387892702,0.305,0.45,0,0,2,333,1
-0.0169867573348,1.42210828968,0.00287474604185,0.0376104338998,0.511,0.45,1,1,1,334,1
0.0460367262672,0.0468884363559,0.000887840136328,1.1467746838,0.473,0.45,3,3,1,335,1
0.020107452753,0.0317740180201,1.29236821187,0.196780287422,0.391,0.45,2,2,2,336,1
0.248192229653,1.00274877565,-0.0586988041139,-0.0998068868173,0.42,0.45,1,1,2,337,1
0.0694368004126,0.0399880095013,1.1168997945,-0.363947141761,0.425,0.45,2,2,2,338,1
0.0658236515792,0.0369135614213,-0.0168641028695,1.40389829503,0.341,0.45,3,3,2,339,1
1.68245953895,0.0294661373138,0.0104193047992,0.0241386344106,0.334,0.45,0,0,2,340,1
0.0870969872757,0.0588339882795,1.08441211071,0.387833260139,0.288,0.45,2,2,2,341,1
2.99781314318,0.102864558197,0.0173021663668,0.00396856161405,0.451,0.45,0,0,1,342,1
0.0205532075949,0.0459875450433,0.346052386128,1.05305521849,0.475,0.45,3,3,1,343,1
0.0550956673926,2.21621650026,0.014192850481,0.0312498348724,0.502,0.45,1,1,1,344,1
2.26056346863,0.0421342995846,0.00480250275942,-0.000805088900183,0.336,0.45,0,0,2,345,1
0.0172868763547,1.18607417767,-0.0290677840359,0.0756502806651,0.463,0.45,1,1,1,346,1
0.0451582766445,0.03194270915,0.0376008913227,1.41600241157,0.526,0.45,3,3,1,347,1
-0.00789230512866,0.0213288869513,1.8528413365,0.20722494958,0.494,0.45,2,2,1,348,1
-0.0323904645706,1.13718501771,0.725532145689,-0.191441282698,0.488,0.45,1,1,1,349,1
0.0843661944044,0.0248103702124,1.2095423663,-0.109773753189,0.405,0.45,2,2,2,350,1
0.0368309925468,0.0373006273161,0.00197345661007,1.12711252079,0.358,0.45,3,3,2,351,1
1.73094531247,0.0340382413817,0.00482388849934,0.000600475164795,0.328,0.45,0,0,2,352,1
0.0282455329605,0.0312606141432,-0.00594845308423,1.30901879532,0.361,0.45,3,3,2,353,1
0.03960262326,0.0231071190674,1.20420378247,-0.114994207038,0.352,0.45,2,2,2,354,1
4.38155852439,0.0299493160292,-0.00358117624594,-0.0323237490284,0.35,0.45,0,0,2,355,1
-0.0505879076607,3.38306385532,-0.0311233408296,-0.227069612299,0.436,0.45,1,1,2,356,1
0.0380893399814,0.0305043869883,-0.0152187564806,1.32278329839,0.468,0.45,3,3,1,357,1
0.00178698603926,1.38447293335,0.141909895942,-0.0935520145813,0.449,0.45,1,1,2,358,1
1.15237548295,0.0538633575771,0.00936490883244,-0.0459695827042,0.348,0.45,0,0,2,359,1
0.0971019608256,0.323461002055,1.68900808859,0.0344946690434,0.499,0.45,2,2,1,360,1
0.125156169527,2.60300930414,0.0156702673748,-0.0406116430461,0.442,0.45,1,1,2,361,1
1.44140417152,0.0366557546354,0.00966647815784,-0.0371122240504,0.397,0.45,3,0,-1,362,1
1.64033756303,0.0405379122691,-0.00754248839312,-0.00736181761715,0.412,0.45,0,0,2,363,1
0.0256004084223,0.0299505032177,1.35367722116,-0.123869553325,0.409,0.45,2,2,2,364,1
0.0347975214589,0.0251598985944,-0.0112352999354,1.69412405017,0.383,0.45,3,3,2,365,1
0.0628536734234,0.056020129823,1.00239811408,0.00781257430903,0.423,0.45,2,2,2,366,1
2.88904413708,0.0336770847773,0.00801138230494,-0.0231282031437,0.405,0.45,0,0,2,367,1
0.0447120958777,0.0434404426375,-0.0127999765574,1.05372654185,0.467,0.45,3,3,1,368,1
0.127935045658,1.10547544629,0.0152689547305,0.120512144103,0.444,0.45,1,1,2,369,1
3.82846218705,0.0476439481921,-0.000180165977352,0.00916545206753,0.372,0.45,0,0,2,370,1
0.111960348416,1.69027755013,0.0150416511781,-0.00720526109837,0.434,0.45,1,1,2,371,1
0.0406247464086,0.0288329089986,1.01986258904,0.129420743345,0.464,0.45,2,2,1,372,1
0.304623266127,2.05827537792,0.0132071152669,0.0132508461712,0.458,0.45,1,1,1,373,1
0.0505883903765,0.0313959614224,-0.0149754171167,1.18788176633,0.448,0.45,3,3,2,374,1
1.00223387513,0.033274557104,-0.00924132289377,-0.0323174093303,0.432,0.45,0,0,2,375,1
0.0389229552417,0.0273353695421,1.04844893269,0.271956106777,0.43,0.45,2,2,2,376,1
1.71305964266,0.0272330649739,0.0138848559613,0.0117100452729,0.404,0.45,0,0,2,377,1
0.0440225558419,0.041264501156,-0.00480465800542,1.09501667402,0.34,0.45,3,3,2,378,1
0.0473276838614,0.036386046862,1.22540961893,-0.0130324136689,0.432,0.45,2,2,2,379,1
0.10019715832,1.03470870242,-0.0312385769893,-0.0546841661942,0.364,0.45,1,1,2,380,1
4.25271577272,0.0452412226291,-0.0130348728772,-0.019807844418,0.307,0.45,0,0,2,381,1
0.0751423084163,1.10960174896,0.00159355435658,-0.0365614030102,0.449,0.45,1,1,2,382,1
0.0430367820218,0.0317075417941,1.04372983262,0.015417591287,0.409,0.45,2,2,2,383,1
0.0576393767037,0.0306198702603,0.000809217452999,1.11221269933,0.359,0.45,3,3,2,384,1
0.0657833047104,1.09184703565,-0.00558554648276,0.020685504836,0.4,0.45,1,1,2,385,1
2.59769594635,0.0577898557352,0.0053772585619,0.0141991560215,0.292,0.45,0,0,2,386,1
0.0645891994332,0.0372980715493,1.59082672075,-0.0875013895028,0.321,0.45,2,2,2,387,1
0.0563731975061,0.031934592179,0.0235665948974,1.15458771682,0.341,0.45,3,3,2,388,1
0.0568189054591,0.0370610586295,1.05692272082,0.019689532422,0.45,0.45,2,2,1,389,1
1.47125494458,0.0490656144325,0.00206209054388,0.0226608264535,0.369,0.45,0,0,2,390,1
0.0615019666443,0.027061662891,0.00766489175339,1.05976769442,0.472,0.45,3,3,1,391,1
0.0703012648093,1.02009180327,0.041913309644,0.0392812890188,0.469,0.45,1,1,1,392,1
0.0637452921926,0.0309673058832,1.01445243409,0.0663140063774,0.419,0.45,2,2,2,393,1
0.0345328589585,1.00981269675,0.0669280537233,0.218260391713,0.478,0.45,1,1,1,394,1
0.0552945047918,0.0450742723443,0.0029782705189,1.06352102378,0.528,0.45,3,3,1,395,1
1.30339024816,0.0398689434972,0.00732833347837,0.126372798015,0.496,0.45,0,0,1,396,1
0.0406107668567,1.06615898473,0.0679679545006,0.091190414612,0.544,0.45,1,1,1,397,1
0.0383961649832,0.0249712921715,0.00472366569985,1.06510985718,0.485,0.45,3,3,1,398,1
0.0727810973983,0.038306793009,1.13791325656,-0.123667626028,0.416,0.45,2,2,2,399,1
1.41857753427,0.0434239442944,0.02010320514,0.0232399889826,0.433,0.45,0,0,2,400,1
0.0374843344469,0.0492882351802,0.0124906341549,1.07655843216,0.499,0.45,3,3,1,401,1
1.43671844147,0.0467432688505,0.0127390218765,0.045219018527,0.47,0.45,0,0,1,402,1
0.0380173483956,0.0373722128571,1.5851430045,-0.111105786064,0.369,0.45,2,2,2,403,1
0.0651275747287,1.39964326536,0.0234853425481,-0.0164801856989,0.379,0.45,1,1,2,404,1
1.49785184192,0.0396151123106,0.00439332279818,-0.013519406264,0.376,0.45,0,0,2,405,1
0.0457271275413,1.07317075842,0.243782267354,0.270447126693,0.484,0.45,1,1,1,406,1
0.0390117807219,0.0314657219947,1.14025800214,-0.0644895375567,0.454,0.45,2,2,1,407,1
0.0606556000189,0.0515823915676,0.0034615056657,1.00348879774,0.435,0.45,3,3,2,408,1
0.0629598712281,1.12015704025,-0.0567346527831,0.111905428155,0.435,0.45,1,1,2,409,1
2.033253466,0.0232899444247,-0.0100257355315,0.0134175867039,0.379,0.45,0,0,2,410,1
0.0598815429251,0.0530900180146,1.07628678996,-0.182689916318,0.325,0.45,2,2,2,411,1
0.0493191895814,0.0356829518365,-0.00290824717985,1.07934413188,0.368,0.45,3,3,2,412,1
1.56313214327,0.0689065431015,0.00921546338435,0.0234467640469,0.447,0.45,0,0,2,413,1
0.0239402044309,0.0346170253014,0.0148861988585,1.26302657496,0.454,0.45,3,3,1,414,1
0.0190283422813,0.0275551973636,1.04840531979,-0.0286294558637,0.385,0.45,2,2,2,415,1
0.227235761361,2.03157801929,0.0532490719477,0.315287095206,0.356,0.45,1,1,2,416,1
0.0539944107857,0.0312632194372,0.0074483054417,1.2319011771,0.463,0.45,3,3,1,417,1
0.148562695,2.20650096105,0.00577328279372,0.0100394278848,0.442,0.45,1,1,2,418,1
0.0592645092583,0.0192242971758,1.17592865452,-0.247451983407,0.384,0.45,2,2,2,419,1
1.73077371497,0.0430261048884,0.015628418678,-0.0123394392564,0.428,0.45,0,0,2,420,1
0.100637838787,1.09586867607,-0.0474481990463,-0.0608703248305,0.509,0.45,1,1,1,421,1
0.0418591947573,0.0516254132504,-0.00646854504931,1.46708691498,0.447,0.45,3,3,2,422,1
1.08066676119,0.0372496955744,-0.00745845366006,0.0399756133534,0.43,0.45,0,0,2,423,1
0.0890092296313,0.0258895741287,1.08252762164,-0.156874764705,0.424,0.45,2,2,2,424,1
1.60003696177,0.0570317875103,0.00399143130634,0.0601988229089,0.384,0.45,0,0,2,425,1
0.0347186596495,0.0445775899573,0.0050776270377,1.15154825974,0.423,0.45,3,3,2,426,1
0.0348507120807,0.031232085009,1.19694657139,0.263843228239,0.352,0.45,2,2,2,427,1
0.0643310193385,1.04189560728,0.15155976546,-0.171862547106,0.329,0.45,1,1,2,428,1
4.07629035709,0.040529265298,-0.0175861932442,-0.0226486780198,0.254,0.45,0,0,2,429,1
0.0188519601141,1.45889833019,-0.037481173434,-0.127210848851,0.462,0.45,1,1,1,430,1
0.0371731873041,0.020762770942,1.11098810202,-0.165985582597,0.328,0.45,2,2,2,431,1
0.0545224645853,0.0279387710785,-0.00531188621807,1.3290503339,0.299,0.45,3,3,2,432,1
0.0496206332238,1.48232433959,0.0050452823064,0.00569230515628,0.298,0.45,1,1,2,433,1
0.0249571536004,0.0468753879238,0.44906993653,1.03391591237,0.503,0.45,3,3,1,434,2
2.03159166907,0.277040097381,0.0247057577725,-0.00255920702307,0.534,0.45,0,0,1,435,2
-0.00495702542275,0.029527628075,2.15456565841,0.0210711889858,0.384,0.45,2,2,2,436,2
0.0463900456136,1.07742881453,0.00621779772265,-0.00150444273008,0.387,0.45,1,1,2,437,2
1.19445959597,0.0439593085126,0.00013962980476,-0.0259030446988,0.407,0.45,0,0,2,438,2
0.0338837720273,1.01190555205,-0.000507455495666,0.0277666957954,0.568,0.45,1,1,1,439,2
0.0410717852107,0.0367296232473,1.0167684436,0.0512013133443,0.411,0.45,2,2,2,440,2
1.05438791498,0.0317095185136,0.00784687620456,0.0129630523191,0.415,0.45,0,0,2,441,2
0.0419573704408,0.0482401682481,0.00552816847666,1.07171351345,0.423,0.45,3,3,2,442,2
0.0537293654734,0.0312862387695,1.13779774023,0.0231052038806,0.415,0.45,2,2,2,443,2
0.0550724440703,0.0258396647605,0.0115056045292,1.08981788863,0.481,0.45,3,3,1,444,2
0.34203119347,2.82539103823,0.0213578538918,0.252929417066,0.474,0.45,1,1,1,445,2
0.0673309822424,0.0290657836232,0.00267306550084,1.16431469011,0.453,0.45,3,3,1,446,2
0.0599212036951,0.0465493220325,1.22783612383,0.0468752467642,0.386,0.45,2,2,2,447,2
0.184362792053,1.42066615718,0.0295339679551,-0.00578181947276,0.493,0.45,1,1,1,448,2
2.53314996594,0.0315032985805,0.011873934354,-0.00338675967305,0.372,0.45,0,0,2,449,2
0.0523677308489,0.0225769480627,1.06394478593,0.291187368455,0.324,0.45,2,2,2,450,2
3.4888383413,0.0307899479864,0.0234419722927,0.00504199206571,0.471,0.45,0,0,1,451,2
0.0542932191081,1.02435033937,-0.00946132647988,0.0285399880464,0.505,0.45,1,1,1,452,2
0.0519723586626,0.0154748575744,1.00700650543,0.00637693894334,0.438,0.45,2,2,2,453,2
0.0716442484998,0.023909796264,-0.0128468930048,1.46259207952,0.392,0.45,3,3,2,454,2
0.0891880356647,1.35012069282,-0.000917820006654,0.0390642722343,0.408,0.45,1,1,2,455,2
0.0608524053784,0.0312713701301,-0.0075995696819,1.12941775112,0.491,0.45,3,3,1,456,2
2.90900860032,0.0312524257222,-0.00159845826888,0.0314180551655,0.412,0.45,0,0,2,457,2
0.046890311559,0.0371939696319,0.00670635399228,1.2750002231,0.431,0.45,3,3,2,458,2
1.337898709,0.0343818137162,0.00766423381682,0.0181695674892,0.378,0.45,0,0,2,459,2
0.0606109078116,1.11424735332,0.00748672384426,0.0296034061674,0.428,0.45,1,1,2,460,2
0.0559322228818,0.0177602889703,1.11682637278,0.12626040434,0.461,0.45,2,2,1,461,2
0.0640452821276,1.38956578717,0.0235827557463,0.0229004303939,0.419,0.45,1,1,2,462,2
1.8441846903,0.027817609985,0.0111747075308,0.0224557348779,0.373,0.45,0,0,2,463,2
0.0321315401693,0.0349825524137,1.04194760026,0.503348408082,0.338,0.45,2,2,2,464,2
0.0573140839986,0.032200714839,-0.0168199223827,1.08256850288,0.306,0.45,0,3,-1,465,2
0.0617711292399,0.0450667188919,0.0123286536722,1.11688111803,0.376,0.45,3,3,2,466,2
0.0662552393636,0.0383690359348,1.11273181727,0.0296830781018,0.361,0.45,2,2,2,467,2
0.0589331805118,0.0266521276217,-0.0068850363631,1.06007584032,0.445,0.45,3,3,2,468,2
0.0861576649243,1.05235128641,0.000113568728024,-0.0534071547178,0.412,0.45,1,1,2,469,2
0.0577969007078,0.0313154897331,-0.00693373364867,1.12501252567,0.471,0.45,3,3,1,470,2
1.71613591718,0.0259876799053,-0.00950750535034,0.0149611453128,0.415,0.45,0,0,2,471,2
0.0577408900053,0.0766724145814,1.28354436324,0.0160395354371,0.346,0.45,2,2,2,472,2
0.0421980487483,1.12854258587,0.0101281028296,-0.0786850376216,0.383,0.45,1,1,2,473,2
0.0709762515814,0.0436109308883,1.0254330645,-0.121577104857,0.35,0.45,2,2,2,474,2
1.00111952605,0.0630858785524,0.00788345324505,-0.0495347772618,0.389,0.45,0,0,2,475,2
0.0717485823222,0.0316017568273,0.0147471026923,-0.00919715775449,0.7,0.45,1,-1,0,477,2
0.0773288732558,1.21022044973,0.00509569949415,-0.00137598853309,0.178,0.45,3,1,-1,477,2
0.0710385533252,0.0421066586539,0.150694263073,0.0604841450895,0.7,0.45,2,-1,0,479,2
0.0716008683556,0.0458763606831,-0.0122466698217,1.15487408559,0.502,0.45,3,3,1,479,2
0.0928800928265,1.2274197795,-0.0100421241365,-0.000655092875816,0.381,0.45,1,1,2,480,2
2.32303061271,0.024879179742,-0.0171773236819,-0.127321475489,0.362,0.45,0,0,2,481,2
0.0279833115417,0.0301648567853,0.00622219383294,1.16294487143,0.425,0.45,3,3,2,482,2
0.0590242401381,0.0254082273273,1.23383845379,-0.11987500463,0.331,0.45,2,2,2,483,2
0.069336349018,1.09361529621,0.00796121975381,-0.050872538484,0.305,0.45,1,1,2,484,2
4.38144380358,0.0153994539609,-0.00621671734262,0.00837643487546,0.295,0.45,0,0,2,485,2
0.0545613081113,0.0487260178406,1.47208870444,0.00885249857605,0.363,0.45,2,2,2,486,2
2.44441667115,0.0313680820149,0.0156950464717,-0.0033602329142,0.509,0.45,0,0,1,487,2
0.0553477659533,1.12219728045,0.0290636630551,-0.0292672493215,0.45,0.45,1,1,1,488,2
0.0639606147582,0.0469128636791,0.00271762180553,1.08513139747,0.494,0.45,3,3,1,489,2
1.31322231894,0.0607950238164,-0.000874319752023,-0.0365278933619,0.583,0.45,0,0,1,490,2
0.0404072222838,0.0433755427097,0.0095466158184,1.5194639863,0.501,0.45,3,3,1,491,2
0.0585728446063,1.20453070576,0.313654333918,-0.0042118467387,0.433,0.45,1,1,2,492,2
0.056662364666,0.0115063322315,1.2806549905,-0.127333549798,0.348,0.45,2,2,2,493,2
0.0551373886327,0.0378508983221,-0.00506523613004,1.47339234657,0.303,0.45,3,3,2,494,2
0.0649153176924,1.05117415225,0.201829748838,-0.0120070930342,0.422,0.45,1,1,2,495,2
2.49232235203,0.0381778145421,-0.00134358831715,0.0212085349152,0.41,0.45,0,0,2,496,2
0.0311696079016,0.0285109968671,1.07570690895,-0.0216298576656,0.355,0.45,2,2,2,497,2
0.0625150039111,1.1633546261,0.00860019192412,0.0217849166808,0.465,0.45,1,1,1,498,2
0.0762746987099,0.0534539505239,1.85168512787,0.00449180175004,0.438,0.45,2,2,2,499,2
3.82811200102,0.0309989560232,0.0155496583238,-0.0578449014392,0.452,0.45,0,0,1,500,2
0.00634301855638,1.96455036915,0.00780332711827,0.0234122851606,0.529,0.45,1,1,1,501,2
0.0453171359418,0.0275421504226,0.0169444982016,1.27967434636,0.466,0.45,3,3,1,502,2
0.046706216301,0.0287151902672,1.1002163471,-0.0706376504437,0.375,0.45,2,2,2,503,2
0.0620362307389,0.0382199244315,0.0234501981375,1.39978273189,0.456,0.45,3,3,1,504,2
1.93684100785,0.0502860537903,0.0234389664953,0.00781253377392,0.381,0.45,0,0,2,505,2
0.0171073572532,0.0392794205601,1.12640884261,-0.0648697942741,0.359,0.45,3,2,-1,506,2
1.89041332369,0.0268160658044,0.0200338638478,-0.00896259619574,0.451,0.45,0,0,1,507,2
0.0295329781561,0.0316904630602,1.05156499495,-0.206701670845,0.358,0.45,2,2,2,508,2
0.049645469311,1.06571718952,0.0184713744135,-0.0176177987952,0.499,0.45,1,1,1,509,2
0.0616302360227,0.0234713315929,1.10318986122,-0.0792143716775,0.401,0.45,2,2,2,510,2
2.80503558097,0.0488531018069,0.0169306512822,-0.000159535416012,0.427,0.45,0,0,2,511,2
0.0448118193207,1.11645141859,-0.0124579060625,-0.00824521728915,0.443,0.45,1,1,2,512,2
0.0423221757925,0.0362968812232,-0.0105360536057,1.06307769758,0.443,0.45,3,3,2,513,2
0.0417498887367,0.0215777145719,1.02700661206,0.164404098875,0.39,0.45,2,2,2,514,2
0.0577145849469,0.0246084775182,-0.00293603504233,1.18421489721,0.484,0.45,3,3,1,515,2
0.0595849373062,1.00392314967,0.0304409580576,0.0162515419038,0.456,0.45,1,1,1,516,2
3.41912082924,0.0222581512393,-0.000461854281741,0.015911529561,0.362,0.45,0,0,2,517,2
0.051629650928,0.0369880018311,-0.00553834471383,1.75117021619,0.486,0.45,3,3,1,518,2
1.62350018002,0.0290178698714,-0.00755327616054,3.02532665586e-08,0.446,0.45,0,0,2,519,2
0.16327001292,2.22123547625,-0.00188387019168,-0.00704923178273,0.417,0.45,1,1,2,520,2
0.0906822779686,0.05123675273,1.24908936496,0.294026520276,0.352,0.45,2,2,2,521,2
0.0392234404037,1.14477458778,-0.0173737211774,0.142768120877,0.398,0.45,1,1,2,522,2
3.75822604971,0.0231041515112,-0.0135725863568,0.0233982203557,0.395,0.45,0,0,2,523,2
-0.0010685905261,0.0163941154191,3.07392885952,-0.183087054178,0.343,0.45,2,2,2,524,2
0.0514876680885,0.0450263372197,-0.0218857161568,1.05536078437,0.316,0.45,3,3,2,525,2
0.0545326131743,1.08490649211,0.0697660560057,0.037357502221,0.364,0.45,1,1,2,526,2
0.0486882131277,0.0391312179754,0.00111999429666,1.14078830804,0.455,0.45,3,3,1,527,2
0.0229780438498,0.0265878649347,1.09362732569,0.316903060377,0.466,0.45,2,2,1,528,2
2.23404543669,0.0318867446813,0.00812924332393,0.000916219198143,0.421,0.45,0,0,2,529,2
0.0356177558381,0.0292195270141,0.00355531287571,1.27296844874,0.475,0.45,3,3,1,530,2
1.75050915638,0.0501047366395,-0.00179188614334,0.00546420542334,0.454,0.45,0,0,1,531,2
0.0593384757212,1.02013120709,0.0926640221416,-0.102325054638,0.468,0.45,1,1,1,532,2
0.0438842154806,0.0478809112315,1.41002321862,0.00906375544429,0.371,0.45,2,2,2,533,2
0.0720445488732,1.05891790904,0.021948322293,0.0316950473974,0.433,0.45,1,1,2,534,2
1.24555739375,0.0286427973834,0.0142300662336,0.00461789096626,0.395,0.45,0,0,2,535,2
0.1338759778,0.458786909196,1.06753095474,-0.0420279289356,0.508,0.45,2,2,1,536,2
3.25871255945,0.0421185746168,0.0193510592609,-0.0265418084979,0.446,0.45,0,0,2,537,2
0.0504327120263,0.0307751909999,0.0342683903784,1.01849885767,0.376,0.45,3,3,2,538,2
0.0545686871476,1.1780601002,0.0362852969422,-0.0838226662913,0.431,0.45,1,1,2,539,2
0.060595666369,0.0290570490041,-0.0104107409984,1.10321027168,0.452,0.45,3,3,1,540,2
0.0872763852904,0.0276726618525,1.23558225214,-0.253992207358,0.368,0.45,2,2,2,541,2
0.0586951325835,0.0277808650306,0.00369581078816,1.11155299269,0.443,0.45,3,3,2,542,2
0.0407935622506,0.0192729215261,1.01598721358,-0.0857722477168,0.403,0.45,2,2,2,543,2
2.55008799434,0.0475011813009,0.0159082652153,-7.55304639455e-05,0.362,0.45,0,0,2,544,2
0.0271070111387,1.14213609165,0.00851666052514,0.00925053590325,0.367,0.45,1,1,2,545,2
0.0421732486056,0.031314710454,1.01521787452,0.0174802912903,0.417,0.45,2,2,2,546,2
0.0081718958985,1.11857191064,-0.00761192383847,0.00626259984096,0.361,0.45,1,1,2,547,2
0.196936556813,0.0336623216154,-0.00635514420058,0.0208566296201,0.7,0.45,0,-1,0,549,2
0.122314667165,0.0265356395601,1.08614830475,-0.228612432461,0.393,0.45,2,2,2,549,2
0.0660572662141,0.0283249424788,0.520836764629,1.15495046354,0.405,0.45,3,3,2,550,2
1.09529633185,0.0294305052067,0.00572625403766,-0.0231308213712,0.375,0.45,0,0,2,551,2
0.0377052811575,0.0403090098468,1.47784273617,-0.00642875937372,0.32,0.45,3,2,-1,552,2
0.113866887784,1.90373685359,0.012274267175,-0.0190981775302,0.401,0.45,1,1,2,553,2
0.0408387314574,0.0313676393595,-0.00783657367725,1.30769633551,0.459,0.45,3,3,1,554,2
0.053355199867,0.0312638487583,1.00552671068,0.0118128352195,0.393,0.45,2,2,2,555,2
0.138951401886,1.71701625272,0.0425326989775,0.202841829195,0.399,0.45,1,1,2,556,2
1.04911443975,0.0428524382048,0.0143628225514,-0.0758244541402,0.316,0.45,0,0,2,557,2
0.0197984667607,1.32283528653,-0.00481622951642,-0.00501415952426,0.402,0.45,1,1,2,558,2
0.0388230467471,0.01783854106,1.06773861947,0.238532702726,0.334,0.45,2,2,2,559,2
1.75691831498,0.016352560807,0.000384433392628,0.00437239607782,0.506,0.45,0,0,1,560,2
0.0442283117955,0.0442223226573,-0.00791702969224,1.09127501621,0.432,0.45,3,3,2,561,2
0.0578439296022,1.00429714511,-0.00102701284982,0.0273121447684,0.358,0.45,1,1,2,562,2
0.0573164060466,0.0312843463617,-9.96487780593e-05,1.08079107336,0.409,0.45,3,3,2,563,2
1.02229351573,0.0299636566857,-0.00661604526063,-0.00112991572695,0.43,0.45,0,0,2,564,2
0.0401118022587,0.0310536472869,2.13222896088,-0.0669051128359,0.331,0.45,2,2,2,565,2
0.0488022019629,0.0466849713931,-0.0155911301178,1.19202475268,0.369,0.45,3,3,2,566,2
1.21325936535,0.0420170368462,-0.0135328971297,0.018329453373,0.371,0.45,0,0,2,567,2
-0.0239366808848,0.111118881494,1.46061094599,0.286182705351,0.341,0.45,2,2,2,568,2
-0.0180369507263,1.15781997771,0.156154655004,-0.244818469962,0.443,0.45,1,1,2,569,2
0.055734676083,0.0348189541686,1.1227614383,0.112073982938,0.434,0.45,2,2,2,570,2
1.30466678515,0.0225056160764,-0.00606668767523,-0.0181159313402,0.51,0.45,0,0,1,571,2
0.186912400747,3.25171252455,-0.00933032958332,-0.00167863642416,0.519,0.45,1,1,1,572,2
1.74987178959,0.027255950546,-0.00740518568158,-0.0503613915758,0.589,0.45,0,0,1,573,2
0.0499978247605,0.0384826362253,-0.00966457907179,1.35837620626,0.504,0.45,3,3,1,574,2
0.118962421857,0.0559886709874,1.02248066251,0.0310952350365,0.454,0.45,2,2,1,575,2
0.0556513336956,0.0357453499684,0.0145526655202,1.11209319443,0.498,0.45,3,3,1,576,2
0.09902414844,1.42730258166,0.0115965926001,0.0256822266329,0.386,0.45,1,1,2,577,2
0.0552422181439,0.0313730970389,0.00182113764279,1.14044023907,0.436,0.45,3,3,2,578,2
0.0234994413878,0.022132420366,1.77124308956,-0.132856626456,0.363,0.45,2,2,2,579,2
0.0512431230674,1.03453683121,-0.0453515366873,0.133865971495,0.37,0.45,1,1,2,580,2
1.59448704437,0.0274703991418,-0.0117235730884,0.0326592310074,0.351,0.45,0,0,2,581,2
0.0256351207237,3.93892514521,-0.0123706020324,-0.101747630079,0.431,0.45,1,1,2,582,2
0.0548120428322,0.0251309392994,1.10691700917,-0.0278279787256,0.412,0.45,2,2,2,583,2
1.05242514852,0.0327032223388,-0.00527816567122,-0.0213753270012,0.473,0.45,0,0,1,584,2
0.0693556415351,0.0393881081657,1.13957932731,-0.282116955002,0.397,0.45,2,2,2,585,2
0.0490245160758,0.0320888789493,0.0144630934985,1.34138387788,0.424,0.45,3,3,2,586,2
3.50460455106,0.0295386169606,-0.00614602267855,0.0312518436341,0.402,0.45,0,0,2,587,2
0.0265608258929,0.0266416676909,0.146489800247,1.12015031673,0.491,0.45,3,3,1,588,2
0.0431707642294,1.12191159201,0.00818112860997,0.0449285921042,0.44,0.45,1,1,2,589,2
0.0469495999902,0.0234962523459,-0.00328195638372,1.33414000546,0.423,0.45,3,3,2,590,2
0.0871112925602,1.22544755928,0.0189607015994,0.0251236130874,0.41,0.45,1,1,2,591,2
2.29047459644,0.0562833022175,-0.0155165124859,0.0224740228033,0.357,0.45,0,0,2,592,2
0.0440961746839,0.0212051938376,1.09867175453,-0.113249920309,0.34,0.45,2,2,2,593,2
0.0151405947204,1.8057897097,-0.00131929178073,-0.0604523694033,0.344,0.45,1,1,2,594,2
0.0785653517801,0.0288850658721,1.10052348866,-0.0644089402795,0.408,0.45,2,2,2,595,2
1.08794423966,0.0436800106366,0.0244811805338,0.00825765059331,0.44,0.45,0,0,2,596,2
0.0247079332772,0.0380656730618,0.0130726735289,1.07810787278,0.404,0.45,3,3,2,597,2
1.63692326104,0.0337268213444,-0.00694060369582,0.0107415168864,0.384,0.45,0,0,2,598,2
0.01738218274,1.00836352589,0.183318608628,0.286701861964,0.464,0.45,1,1,1,599,2
0.0510772555916,0.021882042805,0.0130614152,1.07876838319,0.449,0.45,3,3,2,600,2
0.0471235756578,0.0184678525269,1.07562221519,0.000338727327707,0.387,0.45,2,2,2,601,2
0.0425825813026,0.0261762385792,0.000915729772795,1.04313947964,0.439,0.45,3,3,2,602,2
0.0596973595039,1.18857579627,-0.0070602681329,-0.00694405869281,0.43,0.45,1,1,2,603,2
1.47772775519,0.0191472283194,0.000873307186249,-0.0042847551835,0.433,0.45,0,0,2,604,2
0.0556486626617,0.0232515230797,1.07035242046,0.0450224337288,0.383,0.45,2,2,2,605,2
0.0641579339075,1.07095650719,0.00788851964985,0.0112666742221,0.497,0.45,1,1,1,606,2
0.0587615597783,0.027594201335,1.08633531307,-0.0152898610393,0.463,0.45,2,2,1,607,2
1.31220313191,0.0194505571721,0.0278124249917,-0.0167694507994,0.414,0.45,0,0,2,608,2
0.0229257914751,1.28086862134,0.0195748362231,-0.0960969275033,0.446,0.45,1,1,2,609,2
0.0468227912046,0.0264570906979,0.0155218512143,1.06046975352,0.349,0.45,3,3,2,610,2
0.0505926434044,0.0485251517006,0.664255897582,1.02472866982,0.263,0.45,2,3,-1,611,2
0.0518559907697,0.0295281741203,4.9044862318e-06,1.10255080507,0.478,0.45,3,3,1,612,2
2.99812713867,0.0350302904021,8.4763031849e-07,0.0375366785117,0.309,0.45,0,0,2,613,2
0.0198102614827,0.0310426366633,0.0940324426183,1.24262070976,0.48,0.45,3,3,1,614,2
1.61028030951,0.0275355887266,0.0074876484946,0.0235179503131,0.441,0.45,0,0,2,615,2
0.0524916034902,3.22288558122,-0.00607366410585,0.0317253861994,0.506,0.45,1,1,1,616,2
0.0495842027173,0.0315828739559,1.08775511029,-9.69359199057e-05,0.372,0.45,2,2,2,617,2
1.20291562464,0.0311686975799,-0.0249808508242,-0.11896657436,0.419,0.45,0,0,2,618,2
0.0496951034707,0.0430589941342,2.26204070407,-0.00959423747239,0.37,0.45,2,2,2,619,2
1.05550676029,0.0343526678004,0.00785346684919,-0.0249018422773,0.38,0.45,1,0,-1,620,2
0.056922683559,0.0315794749991,-0.00887105129626,0.0767091448771,0.7,0.45,3,-1,0,622,2
0.0505842039605,0.0226916704015,1.10219051899,-0.104495269062,0.439,0.45,2,2,2,622,2
0.0527726774462,0.0325240262877,0.000307651495445,1.0928346564,0.494,0.45,3,3,1,623,2
0.0470726452421,1.05684103956,0.108400840224,0.0385333939505,0.402,0.45,1,1,2,624,2
3.41738557062,0.0468758938246,0.016240405416,-0.0140129852524,0.329,0.45,0,0,2,625,2
0.0326488531057,0.0357282822232,0.00681182069379,1.12412765756,0.474,0.45,3,3,1,626,2
0.0526439460624,1.06882622875,0.00296509225629,0.029960193478,0.463,0.45,1,1,1,627,2
1.52270231441,0.0196225585997,0.00742529988663,-0.0253297651861,0.414,0.45,0,0,2,628,2
0.0674237801866,0.0509835930546,1.12178059812,-0.186071440835,0.384,0.45,2,2,2,629,2
0.0403627291466,1.0989102961,-0.000357880753575,-0.0258833441474,0.407,0.45,1,1,2,630,2
0.0442421329185,0.041993151022,1.13700640839,-0.00716327229374,0.501,0.45,2,2,1,631,2
3.86437144221,0.0493307463356,0.00496994554312,-0.154816647857,0.44,0.45,0,0,2,632,2
-0.0692093878182,1.85743685156,0.0155027078914,-0.0107310791651,0.485,0.45,1,1,1,633,2
0.0664600053882,0.0254890041077,0.0203105650365,1.0776805366,0.508,0.45,3,3,1,634,2
0.0243805686586,0.027463490042,1.5692723671,0.0312523824623,0.535,0.45,2,2,1,635,2
0.0484715691127,0.0420954932984,-0.00700215463968,1.44480178577,0.532,0.45,3,3,1,636,2
1.0805974004,0.0479526303545,0.00183345910843,0.0276002867131,0.432,0.45,0,0,2,637,2
0.0578209458814,0.0468251403894,-0.00703987285101,1.24070312984,0.429,0.45,3,3,2,638,2
0.0612373200777,0.0391383206636,1.06670751863,-0.0263699891064,0.383,0.45,2,2,2,639,2
2.62558296739,0.0572731633435,-0.00258609213461,-0.0303420634483,0.348,0.45,0,0,2,640,2
0.027747653544,1.17272563274,0.0449463751561,0.138024182995,0.464,0.45,1,1,1,641,2
0.0660340010298,0.0242042850976,1.05834571034,-0.176253235738,0.435,0.45,2,2,2,642,2
0.0547272510246,1.11387665376,-0.00286994282172,-0.00192986473972,0.568,0.45,1,1,1,643,2
2.78986588534,0.0397847331303,-0.000511566382279,0.0180399914538,0.399,0.45,0,0,2,644,2
0.0142868657272,0.0336926061141,-0.00345149309881,1.01647165473,0.429,0.45,3,3,2,645,2
-0.0167859468753,1.40695797085,-0.00763978265273,0.0197163770228,0.466,0.45,1,1,1,646,2
0.033357748729,0.0330822938725,0.0275161926587,1.18283664045,0.462,0.45,3,3,1,647,2
1.55291257787,0.0305564647065,-0.000651198659078,0.00781263830437,0.393,0.45,0,0,2,648,2
0.0792012217748,0.0475061969898,1.1203061579,0.130242666348,0.373,0.45,2,2,2,649,2
0.0546697257491,0.0364363876659,-0.00701387938272,1.05985032098,0.398,0.45,3,3,2,650,2
1.41704727465,0.031722162761,-0.0134980371365,0.172213236027,0.536,0.45,0,0,1,651,3
0.0597956840039,0.0630026434054,0.00173320028055,0.0545989405626,0.7,0.45,1,-1,0,653,3
0.053345538971,0.0386677845055,-0.0137698387042,1.81255801907,0.419,0.45,3,3,2,653,3
0.0469852857184,0.027416794856,1.41831019739,-0.0352085809174,0.293,0.45,2,2,2,654,3
0.059214236346,0.0357765656625,-0.00521678788044,1.03526956808,0.438,0.45,3,3,2,655,3
0.0487822497479,1.14599696227,0.00901951866557,-0.00629752267634,0.371,0.45,1,1,2,656,3
0.0414074731398,0.0253178386187,-0.00050615360342,0.0043162455113,0.7,0.45,2,-1,0,658,3
0.042157369105,0.0977048217397,0.474628008438,0.297361820849,0.7,0.45,0,-1,0,659,3
0.366022586322,0.421102724932,0.224743704949,0.139126233898,0.7,0.45,2,-1,0,660,3
0.162809791838,1.15923083502,0.04972199135,0.143822288544,0.572,0.45,1,1,1,660,3
1.15820336073,0.0569402370886,-0.00423254672681,-0.0428197496336,0.38,0.45,0,0,2,661,3
0.0981937299815,0.0520051769146,1.03597928434,0.117078699815,0.305,0.45,3,2,-1,662,3
1.47108343303,0.0636683412793,0.000593645408419,0.0810392930402,0.478,0.45,0,0,1,663,3
0.0751861357667,0.0506348405542,1.01922982135,0.0209967015368,0.372,0.45,2,2,2,664,3
0.0669092989433,0.04382817594,0.01114409145,1.16730148339,0.331,0.45,3,3,2,665,3
0.0616211775035,1.10009710588,0.0770976031491,-0.0667820747227,0.426,0.45,1,1,2,666,3
0.104485888465,0.0470398509492,1.11249693604,-0.264655945455,0.382,0.45,2,2,2,667,3
0.0665026331504,1.00611945743,0.00356864641655,0.0465207858327,0.439,0.45,1,1,2,668,3
0.0503109613438,0.046159749936,-0.00536810337711,1.28378438978,0.448,0.45,3,3,2,669,3
1.91688619745,0.0676112020245,0.0102316072377,0.0409207792938,0.382,0.45,0,0,2,670,3
0.0796486222972,0.0482656332435,-0.000260495082382,1.21949487468,0.433,0.45,3,3,2,671,3
0.0898778918276,0.0605704732446,1.1889696796,0.298162163365,0.368,0.45,2,2,2,672,3
1.69797132492,0.0408938066472,0.00784820949903,0.0342838305028,0.404,0.45,0,0,2,673,3
-0.00272081487254,2.26953336131,-0.0157495945742,-0.0747898796602,0.456,0.45,1,1,1,674,3
1.87555036136,0.0460309179174,0.0109890043014,0.0147626476103,0.509,0.45,0,0,1,675,3
0.0516055660371,0.0524478090559,1.61633024458,-0.00387038533078,0.434,0.45,2,2,2,676,3
0.0644224811451,0.040531830685,0.0190308872515,1.22933653531,0.306,0.45,3,3,2,677,3
1.10431322815,0.031161298683,0.0236776539367,0.0318206746373,0.414,0.45,1,0,-1,678,3
0.109446597181,0.0333042082068,0.00385175860905,1.06969470263,0.435,0.45,3,3,2,679,3
0.0517388607809,0.0730963048776,1.40703846779,0.130245705694,0.404,0.45,2,2,2,680,3
0.0994102617167,1.87845953738,0.0158061607874,0.0276858918378,0.295,0.45,1,1,2,681,3
0.0635973361397,0.026086501353,1.05217671287,0.0708550201254,0.418,0.45,2,2,2,682,3
1.70272314235,0.0469199433147,0.0192795079767,0.000824560898593,0.455,0.45,0,0,1,683,3
-0.0278614611188,1.04699577298,0.00506217568866,-0.00866985918599,0.471,0.45,1,1,1,684,3
1.41922652075,0.0336591909343,0.012521310316,-0.038068835744,0.486,0.45,0,0,1,685,3
0.1007163103,0.0512105341854,-0.00512732417675,1.31206840096,0.438,0.45,3,3,2,686,3
1.61637392188,0.067450181971,0.010070060202,0.0274616207501,0.375,0.45,0,0,2,687,3
0.05996720584,1.09628863612,0.113126203478,0.134373323741,0.414,0.45,1,1,2,688,3
0.0529674745584,0.0475517084929,0.00887667098759,1.1266396894,0.405,0.45,3,3,2,689,3
0.0499762476264,0.0353332842766,1.17392241818,-0.120903886241,0.323,0.45,2,2,2,690,3
0.0655917997782,0.0457294182199,-0.00010487242354,0.0412930570823,0.7,0.45,3,-1,0,692,3
0.129491322388,1.04169598527,0.171099237755,-0.0969490075948,0.495,0.45,1,1,1,692,3
0.0679192284394,0.0273459020443,1.15783127622,-0.03226887802,0.402,0.45,2,2,2,693,3
1.12867085882,0.0161989629324,0.0126108248335,0.0176297688316,0.505,0.45,0,0,1,694,3
0.0252123723655,0.0434400101341,0.00222010835243,1.098287327,0.471,0.45,3,3,1,695,3
1.52767914962,0.0409705157122,0.00449523526421,0.0434699194793,0.393,0.45,0,0,2,696,3
0.0559516359225,0.029206811806,1.08487900826,0.119830506323,0.369,0.45,2,2,2,697,3
0.0340587250531,1.4691177509,-0.0123067860014,-0.139229216715,0.397,0.45,1,1,2,698,3
1.6821876948,0.0546879239192,0.000908213904162,0.0107201691584,0.356,0.45,0,0,2,699,3
0.00846154326978,1.20028570773,0.0941722599427,0.0245412194502,0.466,0.45,1,1,1,700,3
0.0795474395723,0.0320953598891,0.00304358938641,0.217584502557,0.7,0.45,3,-1,0,702,3
0.0778594889973,0.031879006623,0.806569834907,0.0411606926156,0.7,0.45,2,-1,0,703,3
0.0836451866251,0.0269800560388,1.03133001975,0.0385795062001,0.138,0.45,1,2,-1,703,3
0.0794012479185,0.0468921763663,1.11649936924,0.0227361989509,0.391,0.45,2,2,2,704,3
0.0736364146371,0.0468760970387,0.00781814309381,1.1873975726,0.272,0.45,3,3,2,705,3
1.3036842888,0.0708668367297,0.0208790704983,0.0477700988676,0.324,0.45,0,0,2,706,3
0.0913802830103,0.0337634020687,1.06850765778,0.0281650038251,0.233,0.45,2,2,2,707,3
1.30926387682,0.0301355257702,0.0158526558334,0.0301122860935,0.436,0.45,0,0,2,708,3
0.0749103323888,0.0490214921302,0.00751902219288,1.10532351034,0.345,0.45,3,3,2,709,3
0.0738297047959,1.21201388398,0.00437140102669,0.0284171632185,0.372,0.45,1,1,2,710,3
1.22342085702,0.0323703377141,0.00377235389363,0.0338260089605,0.393,0.45,0,0,2,711,3
0.0546292839695,0.0516924186404,1.06224549515,0.103017685905,0.344,0.45,2,2,2,712,3
0.0763470524877,0.0533334142814,0.00745385835075,1.04272682624,0.299,0.45,3,3,2,713,3
0.0476953682663,1.48520297881,0.101669071589,-0.160238061255,0.402,0.45,1,1,2,714,3
0.0639462559319,0.0164472095068,0.0109704504943,1.25382404707,0.439,0.45,3,3,2,715,3
0.0571295051116,0.0216357290519,1.78507110711,0.0295368335455,0.379,0.45,2,2,2,716,3
0.0960329822578,1.02573346669,-0.0125281012432,0.0159738847679,0.402,0.45,1,1,2,717,3
0.0710965107805,0.0312610110509,1.04114944095,0.0344164597626,0.389,0.45,2,2,2,718,3
1.01444184497,0.153931303729,-0.0181127551226,0.0389485275189,0.605,0.45,0,0,1,719,3
0.0656606409856,1.01440107847,0.0037908108553,0.0217273651263,0.52,0.45,1,1,1,720,3
1.29757591493,0.0261696649057,-0.0276390556879,-0.12744231294,0.548,0.45,0,0,1,721,3
0.0926649057368,0.0358384534487,-0.00152344419264,1.12422534325,0.471,0.45,3,3,1,722,3
1.23389658814,0.0425279670456,0.0165615202218,0.045231420909,0.447,0.45,0,0,2,723,3
0.0920633820679,0.0481769442329,1.01097283217,-0.111168669946,0.37,0.45,2,2,2,724,3
0.0647745530054,1.15384958621,0.0116473594846,-0.0245686281017,0.381,0.45,1,1,2,725,3
0.06892687593,0.0390680512536,0.0179204038153,1.15195328971,0.431,0.45,3,3,2,726,3
0.0813323527786,1.12018900202,0.000116494657911,0.00591687064649,0.48,0.45,1,1,1,727,3
0.0649521432489,0.0352709058484,1.0253562883,0.175326472743,0.444,0.45,2,2,2,728,3
0.0657849387087,0.0316273160765,0.00967153580024,1.01714679324,0.387,0.45,3,3,2,729,3
0.0968871267526,0.0267737377395,1.02827578875,-0.114768337819,0.438,0.45,2,2,2,730,3
1.14730352213,0.0410767010204,0.00969254039457,0.0505216114444,0.487,0.45,0,0,1,731,3
0.102362848531,0.047335984861,-0.00792465826313,1.128653061,0.449,0.45,3,3,2,732,3
1.26400306631,0.0481491324935,-0.00451259790084,0.0371061109897,0.37,0.45,0,0,2,733,3
0.00961683158877,1.20563416247,-0.0212253446721,-0.0755870486256,0.394,0.45,1,1,2,734,3
2.51783254859,0.0230696102723,-0.00435324686996,0.0164449792931,0.426,0.45,0,0,2,735,3
0.0466926320358,0.0269084755725,1.28218959505,0.27941316092,0.418,0.45,2,2,2,736,3
0.0467565645228,1.83223838791,-0.033219940221,-0.12120928075,0.417,0.45,1,1,2,737,3
0.0525915761413,0.0222974568227,-0.0177047424438,1.24978005374,0.451,0.45,3,3,1,738,3
0.0667066241714,0.0294705188355,1.52163066151,-0.0567759814036,0.421,0.45,2,2,2,739,3
0.0567807762141,0.0239864532776,-0.00426904584269,1.42020200595,0.479,0.45,3,3,1,740,3
0.0398815782757,1.12606390649,0.0648869463969,0.0686899056592,0.46,0.45,1,1,1,741,3
0.048406961487,0.0162400398319,1.09429056534,-0.1522028162,0.348,0.45,2,2,2,742,3
1.27931040162,0.0237167845311,7.61053413065e-05,-0.00329916132869,0.368,0.45,0,0,2,743,3
0.104735530922,0.0324598370747,0.00848206362219,1.16214057252,0.372,0.45,3,3,2,744,3
1.12078845277,0.0671587248537,0.0395831226423,0.0594668110559,0.567,0.45,0,0,1,745,3
0.100647556749,1.33615899684,0.00426895731709,0.0438659559015,0.535,0.45,1,1,1,746,3
2.2452294242,0.0390983406919,0.00350366949112,0.00846949489218,0.417,0.45,0,0,2,747,3
0.129699266869,0.0202273912282,1.06934853715,-0.394622301842,0.336,0.45,2,2,2,748,3
0.101386115228,0.039085113488,-0.0149311271683,1.02256455814,0.366,0.45,3,3,2,749,3
0.103476343481,1.07231132474,-0.00732605635997,-0.0657660117822,0.344,0.45,1,1,2,750,3
0.051713026985,0.00235866231455,1.20370198551,-0.0604041033579,0.363,0.45,2,2,2,751,3
0.0875936560028,1.19917163197,0.00418459801896,0.00363848826759,0.484,0.45,1,1,1,752,3
0.0881480180707,0.0241906058706,-0.00606977506878,0.0788079059528,0.7,0.45,3,-1,0,754,3
0.0847811459869,1.01737515429,0.021629540912,0.0439927952228,0.41,0.45,2,1,-1,754,3
2.52237367013,0.0144414212811,0.00501551276233,0.0348064394977,0.363,0.45,0,0,2,755,3
0.057030917593,0.0389280686657,1.0202029734,0.0204684476349,0.286,0.45,1,2,-1,756,3
1.0157419133,0.0277832385039,-0.0525136264371,-0.0958640701666,0.493,0.45,0,0,1,757,3
0.0877418339594,0.0491517247237,1.61575118042,-0.031889557036,0.291,0.45,3,2,-1,758,3
2.74189334917,0.016639034089,-0.00775847508643,0.00648352614947,0.451,0.45,0,0,1,759,3
0.0710354386996,0.0108726544634,1.32050878714,-0.302046791698,0.391,0.45,2,2,2,760,3
0.0749008882794,1.17266863082,-0.00515848273705,-0.0361681664714,0.353,0.45,1,1,2,761,3
0.0730260959572,0.031250517608,0.00851525221035,1.11943599833,0.499,0.45,3,3,1,762,3
0.171216033249,2.7283393145,-0.000824136706892,0.00119535750212,0.445,0.45,1,1,2,763,3
0.0459806306254,0.0468789080554,1.65069174573,-0.00454547384467,0.358,0.45,2,2,2,764,3
0.0535451706853,0.0278779802575,-0.0165414780753,1.08416757912,0.338,0.45,3,3,2,765,3
3.67552783903,0.0235830486834,-0.00251224095969,0.0304095708634,0.474,0.45,0,0,1,766,3
0.0380556116358,0.039275157776,0.0242192078599,1.24780287285,0.454,0.45,3,3,1,767,3
0.187387530128,0.0858689733505,1.03992685119,-0.240479512603,0.44,0.45,2,2,2,768,3
1.33368852425,0.0349291773465,-0.0073340390048,-0.032309344321,0.484,0.45,0,0,1,769,3
0.0690628392069,2.5494357598,-0.00197779589239,-0.00126250142068,0.606,0.45,1,1,1,770,3
2.51404695649,0.0152307132228,-0.00938825239897,-0.0107161237195,0.535,0.45,0,0,1,771,3
0.0958379766734,0.0348450375222,-0.0181794907297,1.06955961259,0.452,0.45,3,3,1,772,3
0.0910683955923,1.05258864376,0.0100980684105,0.016430624911,0.409,0.45,1,1,2,773,3
0.0746282843495,0.0235200217212,1.9754564049,0.0303508664965,0.403,0.45,2,2,2,774,3
0.0839205586743,1.0740192921,0.00782069529339,-0.0326702691454,0.463,0.45,1,1,1,775,3
0.0806335782779,0.0392125308441,0.00139486540091,1.20045644632,0.454,0.45,3,3,1,776,3
0.0804313349047,0.0367225490786,1.08105927276,-0.0209030918627,0.528,0.45,2,2,1,777,3
1.86072172481,0.0454412579212,0.0193562580403,-0.0243374210623,0.431,0.45,0,0,2,778,3
0.0474073841657,1.51728323577,0.013319712401,0.0257495719795,0.411,0.45,1,1,2,779,3
1.10523423497,0.0336269865298,-0.0269940523982,0.0444480334624,0.47,0.45,0,0,1,780,3
0.0601602392667,0.0477795823229,1.01370602487,0.0486570861401,0.403,0.45,2,2,2,781,3
0.071604914147,0.0451084511884,0.00614203427713,1.09567105018,0.358,0.45,3,3,2,782,3
1.14586711459,0.0469378688671,-0.000660656960304,0.0367265697584,0.429,0.45,0,0,2,783,3
0.0178785893099,0.0481788440134,1.35703492722,0.0402662488046,0.336,0.45,2,2,2,784,3
0.0792232064997,0.0354429604805,0.00423047898196,1.06949589236,0.37,0.45,3,3,2,785,3
0.0724665250507,1.09254001326,-0.00449287628128,-0.0032767309512,0.379,0.45,1,1,2,786,3
0.077106639177,0.0465922570369,0.0207930806888,1.19473091292,0.478,0.45,3,3,1,787,3
0.0723492638365,0.0457930136793,1.18964600072,0.0316382791089,0.425,0.45,2,2,2,788,3
0.0790916615423,0.0397947228648,1.13956550629,0.0142022385208,0.432,0.45,1,2,-1,789,3
0.155897157031,0.0572078304161,1.13879321773,-0.234462284374,0.424,0.45,2,2,2,790,3
1.40408491165,0.0334882502486,0.00106764650929,0.00801041630148,0.45,0.45,0,0,1,791,3
0.011344046192,1.52212946595,0.000143654265495,0.0154265617343,0.433,0.45,1,1,2,792,3
1.2444734816,0.0234455388198,0.0169145400801,-0.00678720045029,0.435,0.45,0,0,2,793,3
0.0670969344505,0.0353843507957,-0.000950978215549,1.03304512078,0.504,0.45,3,3,1,794,3
1.00333735797,0.031134276595,0.00140508583197,0.0257850875445,0.417,0.45,0,0,2,795,3
0.0376705331293,0.0397053739754,1.07236082109,0.14130455489,0.379,0.45,2,2,2,796,3
0.0627649703699,1.13754440824,0.00172294734106,0.017300910604,0.389,0.45,1,1,2,797,3
0.0591617182563,0.0468800735913,-0.00111225881658,1.24443307405,0.373,0.45,3,3,2,798,3
0.0441899224985,0.044842291553,1.21626883864,-0.0189425580285,0.364,0.45,2,2,2,799,3
0.0604550283359,0.0396532861925,0.00790395775471,1.29146465251,0.544,0.45,3,3,1,800,3
1.03681567396,0.0391458380555,0.0115416725162,0.0235067185384,0.475,0.45,1,0,-1,801,3
0.0107133783723,0.0233380591315,1.10878418311,0.00923949690648,0.434,0.45,2,2,2,802,3
1.23410331324,0.0348022400152,0.0140214138178,0.0201040145756,0.487,0.45,0,0,1,803,3
0.0456847852377,1.19435092122,-0.00117518760445,-0.0161321598816,0.451,0.45,1,1,1,804,3
1.12479963365,0.0312528772022,-0.0175937474447,0.0131509329869,0.501,0.45,0,0,1,805,3
0.0439557499474,0.0330667863017,-0.0131155300365,1.10592998373,0.481,0.45,3,3,1,806,3
1.07685616796,0.0324118922223,-0.00384126167823,0.0340946171273,0.372,0.45,0,0,2,807,3
0.135048264354,1.08492911615,-0.00778189572946,0.0155760447476,0.458,0.45,1,1,1,808,3
0.0579657426956,0.0312611939602,-0.00491834640895,1.12366744452,0.461,0.45,3,3,1,809,3
0.0503885156701,0.0199650769928,1.10570723254,-0.234326117408,0.387,0.45,2,2,2,810,3
0.0611224405902,0.0378032616718,0.0154268899446,1.20915081479,0.498,0.45,3,3,1,811,3
0.0565958273721,1.42646395059,0.00367807493733,-0.0767335295461,0.424,0.45,1,1,2,812,3
0.0253192433718,0.0346630896112,1.07301115872,-0.0770991261264,0.421,0.45,2,2,2,813,3
1.00086497957,0.0417619632061,0.0167924813863,0.0774204264579,0.485,0.45,0,0,1,814,3
0.0464319941734,0.0272632962556,1.25575898765,-0.053797878316,0.41,0.45,2,2,2,815,3
0.109178174405,1.32010546274,-0.0238551452106,-0.0419900864688,0.468,0.45,1,1,1,816,3
1.00072295671,0.0185016466395,0.0121551580047,0.0130531036685,0.381,0.45,0,0,2,817,3
0.0614993129,0.0297919769187,0.0355054144001,1.15812227998,0.454,0.45,3,3,1,818,3
0.0668202918356,0.0311739002058,0.000407571990371,0.0339071007596,0.7,0.45,0,-1,0,820,3
0.0740349596932,0.0312319666418,-0.00342489078939,1.20914771429,0.467,0.45,3,3,1,820,3
0.21817079567,1.11117034202,-0.00735063106214,0.0312944392416,0.476,0.45,1,1,1,821,3
0.0437980884226,0.0235233250837,1.70063298992,-0.00852257239469,0.34,0.45,2,2,2,822,3
0.068966434092,0.0307105263154,0.0202800611105,1.13665190572,0.396,0.45,3,3,2,823,3
0.0641822058241,0.142398028023,0.0528119286553,0.0314814028223,0.7,0.45,2,-1,0,825,3
0.0623134491423,1.03499303394,0.0844976463402,0.0962960888369,0.471,0.45,1,1,1,825,3
1.73387057177,0.044515954312,-0.00533729571691,0.0324114218687,0.341,0.45,0,0,2,826,3
0.0718567452732,0.0249650849762,2.21659035691,-0.177120172126,0.303,0.45,2,2,2,827,3
0.0242148144663,1.17627172091,-0.033064895114,-0.109263885619,0.415,0.45,0,1,-1,828,3
0.0639656343683,1.38358532323,0.0118507533883,0.0809802147906,0.416,0.45,1,1,2,829,3
0.050336678464,0.0156520733053,-0.0081453304482,1.13552917708,0.453,0.45,3,3,1,830,3
0.155572876792,0.0365809746108,-0.00949196637613,-0.0285087159088,0.7,0.45,0,-1,0,832,3
0.0835387088914,0.0375532206637,0.0110873249879,1.05910663218,0.446,0.45,3,3,2,832,3
0.172359684083,1.48404844627,0.0514715210482,0.169349543085,0.415,0.45,1,1,2,833,3
-0.00283707456055,0.0642114377634,1.86501654134,0.240106467765,0.42,0.45,2,2,2,834,3
0.0568380137784,0.0528034901133,0.0882274344441,1.91377081567,0.4,0.45,3,3,2,835,3
0.0662100986538,0.0332208764936,1.72059095085,-0.0534329380949,0.395,0.45,2,2,2,836,3
0.123761188007,0.0422316865924,0.0134140562236,0.0140171125912,0.7,0.45,1,-1,0,838,3
0.0837183392501,0.0112139674382,0.00181162635903,1.19750327318,0.433,0.45,3,3,2,838,3
1.38150504404,0.014213860682,0.00487134610347,0.0340914569461,0.438,0.45,0,0,2,839,3
0.0561227583614,0.0740429482679,1.16692806301,0.317574181617,0.376,0.45,2,2,2,840,3
0.23104507067,0.0429248280254,0.00552828345979,0.0115477769217,0.7,0.45,0,-1,0,842,3
0.341502040316,2.60034259712,0.29185770847,-0.00528075914648,0.498,0.45,1,1,1,842,3
1.07227847936,0.0274213445914,0.0361074661464,0.00495727622373,0.649,0.45,0,0,1,843,3
0.052537907062,0.0241239989015,0.018177122696,1.20804713247,0.449,0.45,3,3,2,844,3
0.0575870700755,1.02880334492,0.00850692077172,0.04207583509,0.465,0.45,1,1,1,845,3
0.0575496617813,0.0130738565595,1.5642385126,0.0290236529177,0.342,0.45,2,2,2,846,3
0.0526978567771,1.30728294397,-0.0135070543133,-0.0940364646799,0.405,0.45,1,1,2,847,3
0.0617281045548,0.0356431129729,-0.0041797622003,1.05475845635,0.483,0.45,3,3,1,848,3
0.0707284024158,0.0362840592756,1.04700486898,0.0417557291852,0.509,0.45,2,2,1,849,3
0.0765615958787,0.0321538954616,-0.00716746702433,1.19378101682,0.487,0.45,3,3,1,850,3
1.01509989486,0.0184990918633,0.00109454026727,0.00755720662779,0.471,0.45,0,0,1,851,3
0.0282281378325,0.0260760127743,1.18933293565,0.119945627407,0.345,0.45,2,2,2,852,3
1.05698202365,0.0256074064501,-0.0116085956589,0.0303006184918,0.447,0.45,0,0,2,853,3
0.0676404293396,1.72346792373,0.00241963076828,0.0222354210095,0.403,0.45,1,1,2,854,3
1.14882419479,0.0234580576566,-4.90676068567e-05,0.0121803345211,0.456,0.45,0,0,1,855,3
0.113761733237,1.10918687021,-0.00213040414662,0.0112878572553,0.523,0.45,1,1,1,856,3
0.0854897878601,0.0318683802272,0.0882061224295,-0.0544821588689,0.7,0.45,2,-1,0,858,3
0.0682536715963,0.0361324830622,0.00878127399019,1.30194178858,0.436,0.45,3,3,2,858,3
0.0474035206181,0.0243186098793,2.00535007525,-0.106110987581,0.404,0.45,2,2,2,859,3
0.0788448663875,1.56277098998,0.00248950873402,-0.0457905867834,0.319,0.45,1,1,2,860,3
-0.0298084482694,0.00387338484881,3.11046429137,-0.0579278826088,0.389,0.45,3,2,-1,861,3
0.0239473414685,0.0362988677369,1.40765999838,0.0473356891954,0.264,0.45,0,2,-1,862,3
0.0480379783833,0.043592998671,0.00242712743411,1.10360561588,0.482,0.45,3,3,1,863,3
0.0169078492196,1.78951800479,0.00103703984577,-0.0568921377709,0.472,0.45,1,1,1,864,3
0.177965262472,0.0128781899605,-0.0047157194041,-0.0177393577816,0.7,0.45,0,-1,0,866,3
0.134380301202,0.0435837110002,1.04864937182,0.298871397405,0.334,0.45,2,2,2,866,3
0.068580084226,1.72930020371,0.00509178892268,-0.0483852832353,0.427,0.45,0,1,-1,867,3
0.140925991411,1.39189385787,0.0670635534515,0.166064643744,0.568,0.45,1,1,1,868,4
1.55715180729,0.029402194522,0.00501320487496,0.0743014439916,0.405,0.45,0,0,2,869,4
0.0710893657561,0.0367753537075,1.48542280619,-0.0696224030385,0.304,0.45,2,2,2,870,4
0.0802708951482,0.0373213898988,-0.00583163878856,1.26666225485,0.281,0.45,3,3,2,871,4
1.34022387896,0.0457241955583,0.0137956977866,0.06376584412,0.444,0.45,0,0,2,872,4
0.0847315985413,0.0395976109169,0.00232675817674,1.1580894902,0.468,0.45,3,3,1,873,4
0.0805159326196,0.0338880290192,1.05216168096,-0.0499606687516,0.362,0.45,2,2,2,874,4
1.01802834304,0.0348166619721,-0.0386794044163,-0.138556521813,0.465,0.45,0,0,1,875,4
0.109569569921,1.63670579742,-0.0200222125365,-0.138353262021,0.334,0.45,1,1,2,876,4
0.0558790765964,1.29037715273,0.00121678951926,-0.0158393301098,0.304,0.45,2,1,-1,877,4
0.118714231353,1.32091838474,-0.0175356368747,-0.075125501274,0.428,0.45,1,1,2,878,4
0.0698904027753,0.0459403015945,0.0127709379327,1.10990861124,0.444,0.45,3,3,2,879,4
0.0313082862718,1.11165803155,0.0149317015988,-0.0132237587926,0.375,0.45,1,1,2,880,4
0.0513099236913,0.0468988707514,0.0136310405195,1.24564976196,0.467,0.45,3,3,1,881,4
2.6440089045,0.0370883014077,0.00256178868054,0.0307099450945,0.454,0.45,0,0,1,882,4
0.0526183565195,0.0254105399356,1.69628708398,-0.120005584244,0.359,0.45,2,2,2,883,4
0.127201434927,0.0427493871058,-0.00134566391052,-0.0115894412851,0.7,0.45,0,-1,0,885,4
0.0893960581504,0.038733313853,-0.00627577124911,1.23572625974,0.417,0.45,3,3,2,885,4
0.0738833299811,0.0326642302852,1.7901530181,0.0234415267297,0.402,0.45,2,2,2,886,4
0.0556024111511,0.0310516583571,-0.00228715649693,1.01229971094,0.462,0.45,3,3,1,887,4
0.111325067234,1.84290729485,0.0803990468093,0.316539920132,0.448,0.45,1,1,2,888,4
0.0793964400317,0.0601381136595,1.6081744579,0.106468195332,0.355,0.45,2,2,2,889,4
0.0478950272871,1.52570851834,0.0156260574524,0.0145617924077,0.482,0.45,1,1,1,890,4
1.15120748043,0.0341451432413,0.0119127705762,0.0108753811049,0.362,0.45,0,0,2,891,4
0.0804955602777,1.04706974984,0.00245840731719,-0.00961842076069,0.465,0.45,1,1,1,892,4
0.059025979599,0.0403622906609,1.04988940307,-0.0556170759629,0.389,0.45,2,2,2,893,4
1.79067335269,0.0349223791665,-0.00763569183428,-0.0108065147043,0.424,0.45,0,0,2,894,4
0.00799222354827,0.0346042525205,0.0319592911412,1.02566573742,0.428,0.45,3,3,2,895,4
2.19222062215,0.0439146469166,0.001578086901,0.0143109782688,0.418,0.45,0,0,2,896,4
0.113424970957,0.0968060707211,1.19839862243,-0.396912945783,0.324,0.45,2,2,2,897,4
0.0550721447864,0.0359683058173,0.00698281526023,1.03101965974,0.695,0.45,3,3,1,898,4
0.0360893494427,0.0200707800346,1.51351143336,-0.0665738473371,0.479,0.45,2,2,1,899,4
0.0422882410875,2.88525465495,0.00452327596368,0.112899412967,0.451,0.45,1,1,1,900,4
1.01284684147,0.10700921746,-0.0480748643147,0.149273127718,0.421,0.45,0,0,2,901,4
0.0148500807517,1.59718023987,0.00248979296876,0.0283689922351,0.55,0.45,1,1,1,902,4
0.0298360657237,0.00883611712593,-0.0152331494934,1.14823335076,0.47,0.45,3,3,1,903,4
0.0568961181552,1.07552882762,-0.0296392517048,-0.0200531241435,0.47,0.45,1,1,1,904,4
0.0540525200797,0.0176939698401,1.14524587682,-0.0624204957862,0.384,0.45,2,2,2,905,4
1.08795453462,0.0245963202235,-0.0086185604818,0.0105738858156,0.448,0.45,0,0,2,906,4
0.0849857067257,0.0325623592927,-0.040505623579,1.06686635161,0.5,0.45,3,3,1,907,4
0.0698100242328,0.0374771191865,1.23163058246,0.0842536768069,0.398,0.45,2,2,2,908,4
0.0545742001812,0.0346085196853,0.000371953126118,0.121931000474,0.7,0.45,3,-1,0,910,4
2.1873189969,0.0398280935222,-0.00628761350249,0.0358475837745,0.513,0.45,0,0,1,910,4
0.00675674193577,2.21367298156,-0.0425185355003,-0.22188095749,0.497,0.45,1,1,1,911,4
0.0362802846664,0.0282599871696,-0.0192663309515,1.16056130713,0.421,0.45,3,3,2,912,4
0.131634173161,2.962655744,0.06408202871,0.296943525525,0.46,0.45,1,1,1,913,4
1.20214901385,0.0132337542993,-0.00221616948139,-0.0735930064246,0.44,0.45,0,0,2,914,4
0.0377011346906,0.0227447368947,1.17359379655,-0.0845625517116,0.371,0.45,2,2,2,915,4
0.0643683588261,1.02893983336,0.0365489622929,0.101832380775,0.379,0.45,1,1,2,916,4
0.0596012330516,0.020491152634,-0.0176724370137,1.38819019772,0.439000000001,0.45,3,3,2,917,4
1.45974566507,0.0303825197505,-0.013198075497,0.000982833102895,0.476000000001,0.45,0,0,1,918,4
0.0578714834685,0.0113463002678,2.41100241027,-0.189379330964,0.324000000001,0.45,2,2,2,919,4
0.0502855729325,0.0310139693621,0.0129543533487,1.26367633683,0.430000000001,0.45,3,3,2,920,4
-0.00264361084192,0.0157263766571,3.27726134019,0.0276233416675,0.434000000001,0.45,2,2,2,921,4
1.51275235363,0.0294891447536,-0.00768663749658,0.00941704683213,0.389000000001,0.45,0,0,2,922,4
0.136117548423,1.3091987651,0.199266849481,0.350309185739,0.476000000001,0.45,1,1,1,923,4
1.03133586759,0.133336204448,-0.0377814737652,-0.172244485247,0.520000000001,0.45,0,0,1,924,4
0.074358846388,0.0433194553538,0.0123847590673,1.38513221504,0.417000000001,0.45,3,3,2,925,4
0.0433397951441,1.13748400127,-0.00384117485577,-0.0613427849639,0.421000000001,0.45,1,1,2,926,4
0.131628320675,0.0457445952597,1.04952101508,0.367263096022,0.299000000001,0.45,2,2,2,927,4
0.280801755244,3.0724929571,0.00783789816859,-0.0066557961868,0.337000000001,0.45,1,1,2,928,4
0.0515694279495,0.0156292132803,-0.00517316330367,1.08876052285,0.403000000001,0.45,3,3,2,929,4
1.00874744121,0.0153768777334,0.01144302937,0.0910174646667,0.375000000001,0.45,0,0,2,930,4
-0.0251263890984,0.0641218711616,1.96558972468,0.0586910349588,0.320000000001,0.45,2,2,2,931,4
3.20682155004,0.0221296162461,0.00785631453247,0.0128810187414,0.398000000001,0.45,0,0,2,932,4
0.0523725865979,0.0181637323627,0.0199266222878,1.34549126635,0.370000000001,0.45,3,3,2,933,4
0.0521978218116,0.0371448460302,1.08362548062,-0.0118749168943,0.395000000001,0.45,2,2,2,934,4
0.0694957353523,1.25817270559,0.0238206340136,-0.0624924074722,0.348000000001,0.45,1,1,2,935,4
0.0619945062875,0.0103611940231,1.24294534392,-0.101901457005,0.381000000001,0.45,2,2,2,936,4
0.0645550168393,0.0255887038483,-0.0122922168595,1.16845132123,0.428000000001,0.45,3,3,2,937,4
0.057995970024,1.00514643964,-0.00579637919249,0.00434358122721,0.389000000001,0.45,1,1,2,938,4
0.171580963547,0.0252710373195,-0.0183735162359,-0.0289527468569,0.7,0.45,0,-1,0,940,4
0.112795524762,1.0745654299,0.104660046881,0.00136569162894,0.537000000001,0.45,1,1,1,940,4
0.0133995674571,0.0162222445913,1.11090328962,0.100535861858,0.422000000001,0.45,2,2,2,941,4
3.25851900233,0.0363938859621,0.0161213502542,0.00134447462209,0.423000000001,0.45,0,0,2,942,4
0.121673728237,0.0276822268431,1.42972954681,-0.0539372632052,0.349000000001,0.45,3,2,-1,943,4
0.228419393869,0.00633963243282,0.00602210827266,-0.0525341845522,0.7,0.45,0,-1,0,945,4
0.153497229738,0.0369240149197,1.78496158654,0.00199880359315,0.451000000001,0.45,2,2,1,945,4
0.0944881576535,0.0396936498709,-0.01134821816,1.11026013235,0.411000000001,0.45,3,3,2,946,4
0.0683233618646,0.0228829690567,1.10991402425,0.380441856296,0.421000000001,0.45,2,2,2,947,4
0.0655085980695,1.22044202799,-0.00861980108765,-0.0019098456796,0.340000000001,0.45,1,1,2,948,4
1.04088296014,-0.0394965789102,0.0243279929507,-0.0282076410447,0.429000000001,0.45,0,0,2,949,4
0.0698826293349,1.06598451931,-0.000676500684134,-0.0822513193216,0.443000000001,0.45,1,1,2,950,4
0.0725300740356,0.0247652934142,0.0565729880306,1.07843085108,0.431000000001,0.45,3,3,2,951,4
0.160847402499,1.02342834944,0.0033282952751,0.0621553514923,0.565000000001,0.45,1,1,1,952,4
0.0540003515205,0.0235310181996,1.05379466382,0.0379592942506,0.379000000001,0.45,2,2,2,953,4
0.055424394421,0.0235500843139,0.0152837379903,1.09755654821,0.414000000001,0.45,3,3,2,954,4
1.2312121967,0.0662763209966,0.0470642450615,0.0597711744376,0.380000000001,0.45,0,0,2,955,4
0.0399794928954,0.0390756518794,0.0265726678675,1.25062005629,0.443000000001,0.45,3,3,2,956,4
0.0588492481693,0.0199364131219,1.09524140516,-0.152906531662,0.373000000001,0.45,2,2,2,957,4
1.11896243831,0.148074321557,0.00502898474809,0.315693304872,0.505000000001,0.45,0,0,1,958,4
0.0122661079141,1.25806377797,0.0178188332427,-0.0399816092772,0.474000000001,0.45,1,1,1,959,4
1.04157217993,0.0068819641488,0.00595795990145,-0.124573241791,0.533000000001,0.45,0,0,1,960,4
0.041698707223,0.0323391074136,1.12821085651,-0.149444689866,0.419000000001,0.45,2,2,2,961,4
0.055813643196,1.74859369225,-0.0122389183088,-0.0460308461905,0.431000000001,0.45,1,1,2,962,4
0.0601650942179,0.0339925435594,-0.0252982106769,1.31474322388,0.364000000001,0.45,3,3,2,963,4
0.0561563778369,1.21895485711,-0.00971373419189,0.0117500316491,0.343000000001,0.45,1,1,2,964,4
1.22094222608,0.0594207756316,-0.0172750797004,-0.190992567182,0.373000000001,0.45,0,0,2,965,4
0.0685245457116,0.0284572033647,1.09308560981,-0.0800256293993,0.291000000001,0.45,2,2,2,966,4
0.0638850991892,0.0321401089477,0.00189843659424,1.10453643659,0.396000000001,0.45,3,3,2,967,4
0.054560464847,0.0335438129041,1.91917728669,0.0468748434974,0.325000000001,0.45,2,2,2,968,4
1.32998685766,0.0987885810896,0.0475666036056,-0.202666854757,0.442000000001,0.45,0,0,2,969,4
-0.00812809142612,0.0149147858977,1.19749006634,0.571923539615,0.385000000001,0.45,3,2,-1,970,4
0.0642428964513,1.14923309008,-0.0152473621416,-0.00830122861294,0.483000000001,0.45,1,1,1,971,4
0.0485773290591,0.0180253292837,-0.0360434425201,1.01665835088,0.351000000001,0.45,3,3,2,972,4
1.03977062216,0.0380283379625,-0.022464264948,-0.0823833286569,0.383000000001,0.45,0,0,2,973,4
0.0762934492488,1.31578539769,-0.0200708869866,-0.0658511149193,0.416000000001,0.45,1,1,2,974,4
0.0647530419054,0.024612838182,1.12854937191,-0.0787778619487,0.332000000001,0.45,2,2,2,975,4
0.069453275973,1.78436019015,0.0458858633905,-0.02387431167,0.430000000001,0.45,1,1,2,976,4
0.0500485829749,0.023437880557,0.00290936662227,1.18194897137,0.379000000001,0.45,3,3,2,977,4
0.0970836464785,0.00764650268596,1.36515913642,-0.260310791808,0.391000000001,0.45,2,2,2,978,4
1.34581623864,0.0401291290986,-0.0111835631056,0.006363288361,0.474000000001,0.45,0,0,1,979,4
0.0795030726147,0.0347483593486,1.60426383966,0.0208833735058,0.414000000001,0.45,2,2,2,980,4
0.0683901216482,0.0331893387363,0.00559873724101,1.11170942997,0.249000000001,0.45,3,3,2,981,4
0.076001487922,0.0274465052056,-0.0020334245697,0.00146304362733,0.7,0.45,0,-1,0,983,4
0.0979738127893,0.0266186777534,0.00167680049353,1.31475802071,0.542000000001,0.45,3,3,1,983,4
0.128123120094,0.0123649489474,1.26429268988,-0.0863975361065,0.432000000001,0.45,1,2,-1,984,4
0.0504078822169,0.00451787143275,1.03013670348,0.0557546806958,0.384000000001,0.45,2,2,2,985,4
0.0711452265026,1.42927805043,-0.0121282885622,-0.0689481869187,0.458000000001,0.45,1,1,1,986,4
1.1831984717,0.0150357984709,0.000391677898776,0.203388385183,0.383000000001,0.45,0,0,2,987,4
0.0374611146634,1.30520712931,-0.0273267432699,0.244403085893,0.482000000001,0.45,1,1,1,988,4
0.0333135758613,-0.00249410410867,0.00466097580492,1.55897419366,0.340000000001,0.45,3,3,2,989,4
0.0799548384323,-0.000189404245438,1.0893597496,-0.341134954374,0.376000000001,0.45,2,2,2,990,4
2.54262145612,0.0109631747471,0.00893680808658,-0.0467443183849,0.310000000001,0.45,0,0,2,991,4
0.0165541024126,0.0193841769207,1.13774026616,0.0930885574742,0.399000000001,0.45,3,2,-1,992,4
1.646803805,0.0302734091493,0.0204694180243,0.142743746244,0.459000000001,0.45,0,0,1,993,4
0.0530251660398,0.0433103222458,1.07564666749,-0.218254170872,0.345000000001,0.45,2,2,2,994,4
0.0333099579589,0.0244678178469,0.0424729756697,1.55154727868,0.324000000001,0.45,3,3,2,995,4
0.063728714197,1.74790233692,0.0147871031018,0.0654844247128,0.348000000001,0.45,1,1,2,996,4
0.13146539089,0.0326708956268,1.04624348827,-0.250076999493,0.363000000001,0.45,2,2,2,997,4
0.0590633600494,1.20926959593,-0.00820142719094,-0.0875897146593,0.425000000001,0.45,1,1,2,998,4
1.04913048912,0.0171244855882,-0.0152479410897,-0.00847977487936,0.424000000001,0.45,0,0,2,999,4
0.0497132719835,1.38234887608,-0.0178383358157,-0.045631171691,0.420000000001,0.45,1,1,2,1000,4
2.14225902566,0.0286282992608,0.00225650506549,-0.00910099795767,0.409000000001,0.45,0,0,2,1001,4
0.0503174118379,0.0205687054557,1.18870213712,0.314486588147,0.352000000001,0.45,2,2,2,1002,4
0.063878848201,0.0282810649297,-0.0220300278612,1.22984898139,0.299000000001,0.45,3,3,2,1003,4
1.53413007177,0.0237503285821,0.00736385882641,-0.0219961997025,0.266000000001,0.45,0,0,2,1004,4
0.116822720417,0.0467252345129,1.14997906382,-0.40654970503,0.372000000001,0.45,3,2,-1,1005,4
0.063583799644,0.0261621367353,1.17058276994,-0.046679039258,0.375000000001,0.45,2,2,2,1006,4
0.111401389689,1.46679543023,0.0221553379626,0.0440696068627,0.391000000001,0.45,1,1,2,1007,4
0.054563617287,0.0231889490985,0.00480938602095,1.18907239833,0.441000000001,0.45,3,3,2,1008,4
0.0525663527828,4.33278625288,-0.0243164353488,0.0234930879235,0.453000000001,0.45,1,1,1,1009,4
-0.00184584587813,-0.025128244005,1.02282582586,-0.343257278667,0.458000000001,0.45,2,2,1,1010,4
2.68468197629,0.0193365336916,-0.0121968662968,-0.023406310603,0.442000000001,0.45,0,0,2,1011,4
0.0170118620824,1.00927980859,-0.011134381654,-0.11179514089,0.531000000001,0.45,1,1,1,1012,4
0.0511794039536,0.0324448188677,-0.0202460715185,1.47128525017,0.438000000001,0.45,3,3,2,1013,4
0.065654405928,0.0334907692936,1.00574115315,-0.143883404914,0.381000000001,0.45,2,2,2,1014,4
1.80368715295,0.00952720570234,-0.0120325670813,-0.0306551414751,0.381000000001,0.45,0,0,2,1015,4
0.0875513423472,0.0379198638557,0.00164637141769,1.02121049914,0.518000000001,0.45,3,3,1,1016,4
1.02596827829,0.0448982194855,0.00238166511932,-0.0060529904662,0.409000000001,0.45,0,0,2,1017,4
0.0175443992448,0.0238376608792,1.91855828706,-0.161207103933,0.406000000001,0.45,2,2,2,1018,4
0.0483700897617,1.34239395568,0.066883856527,0.199152110349,0.336000000001,0.45,1,1,2,1019,4
0.0739231017567,0.0287327684959,1.08037544476,-0.108442509255,0.385000000001,0.45,2,2,2,1020,4
0.0552279341304,0.0240592072125,-0.00948020704056,1.10819394883,0.415000000001,0.45,3,3,2,1021,4
0.0508859260189,1.0569073041,0.00516985168498,-0.0160826970293,0.413000000001,0.45,1,1,2,1022,4
2.74791923631,0.03974173503,-0.00345671365401,-0.129430051586,0.390000000001,0.45,0,0,2,1023,4
0.166914940705,3.65987254051,0.00166297372217,-0.00619190767429,0.453000000001,0.45,1,1,1,1024,4
0.0461557944315,0.0246319216877,0.00557992350762,1.71272313718,0.428000000001,0.45,3,3,2,1025,4
0.065172902539,0.0327232367216,1.05127687987,-0.0945885046435,0.344000000001,0.45,2,2,2,1026,4
1.16295467578,0.0314065948482,-0.000704757831576,0.0733412361784,0.343000000001,0.45,0,0,2,1027,4
0.0272062011918,0.0579489492032,1.26335275866,0.853705313279,0.415000000001,0.45,2,2,2,1028,4
0.049974701761,0.0398591086467,-0.0143963758991,1.43680768713,0.308000000001,0.45,3,3,2,1029,4
0.13474443484,0.025438157111,-0.00234814696689,-0.0176324354948,0.7,0.45,0,-1,0,1031,4
0.056608215927,2.54969422072,-0.015864781277,-0.179622219578,0.404000000001,0.45,1,1,2,1031,4
2.08090657748,0.0390642705777,-0.0107401951501,-0.0181669957522,0.401000000001,0.45,0,0,2,1032,4
0.0874800023077,0.0292913744943,0.0146736000805,1.2424365888,0.474000000001,0.45,3,3,1,1033,4
0.0973355291075,1.86229102357,-0.0161165436149,0.0259891505231,0.470000000001,0.45,1,1,1,1034,4
0.0506691484526,0.0132055687135,1.29176266827,-0.0616501924984,0.381000000001,0.45,2,2,2,1035,4
-0.04002727496,1.14720447584,0.0232721756442,-0.0699652700111,0.397000000001,0.45,1,1,2,1036,4
2.79544540561,0.0258920730497,0.00456805630064,-0.00619549114221,0.341000000001,0.45,0,0,2,1037,4
0.0869440740104,0.0194495691037,-0.0100687903882,1.2002643039,0.381000000001,0.45,3,3,2,1038,4
0.0958271349794,0.233984505259,1.14277213881,0.0240902194168,0.375000000001,0.45,2,2,2,1039,4
4.49026553622,0.0271307651759,-0.00349786245846,0.00296651942984,0.406000000001,0.45,0,0,2,1040,4
0.0135587458498,0.0266959545273,1.08208610632,0.015605978267,0.313000000001,0.45,2,2,2,1041,4
0.0689500187779,0.035552324251,0.0961695185902,1.47252003011,0.290000000001,0.45,3,3,2,1042,4
0.46229156674,2.27106064296,-0.00871012568874,-0.00882053825161,0.373000000001,0.45,1,1,2,1043,4
0.110270860064,0.0308688057993,1.20341499898,-0.15342576527,0.364000000001,0.45,3,2,-1,1044,4
2.27372291698,0.00573716074621,0.00598220040642,-0.0134573481263,0.459000000001,0.45,0,0,1,1045,4
0.0773016522116,0.0277824386808,-0.00217432816793,1.03386612635,0.325000000001,0.45,1,3,-1,1046,4
0.0671027864116,0.0204345913107,1.02808813028,0.150945558357,0.380000000001,0.45,2,2,2,1047,4
0.145935412653,1.93688785566,0.0142026444432,0.00913895181366,0.458000000001,0.45,1,1,1,1048,4
1.37635049721,0.0194556795917,-0.00829847340074,0.00159359206923,0.357000000001,0.45,0,0,2,1049,4
0.0487364972291,0.0276058173194,-0.0160272866594,1.04222623835,0.306000000001,0.45,3,3,2,1050,4
0.0468003773281,0.0227543665944,1.58045784988,0.0468987426594,0.266000000001,0.45,2,2,2,1051,4
3.61564915677,0.0164657123673,-0.00949038065769,-0.00643349242457,0.393000000001,0.45,0,0,2,1052,4
0.0284601430259,0.013015560413,1.10264248526,0.135979632738,0.341000000001,0.45,2,2,2,1053,4
0.0599916856094,0.0381391213444,0.088181184494,1.0367552815,0.273000000001,0.45,3,3,2,1054,4
0.0790409293726,1.09403254286,0.00993594110197,0.022026180594,0.315000000001,0.45,1,1,2,1055,4
0.057087355753,0.0163333974947,1.20842471623,-0.0847898701213,0.295000000001,0.45,2,2,2,1056,4
0.0431881899834,1.23165847047,-0.0119950632461,0.019249172393,0.446000000001,0.45,1,1,2,1057,4
0.0436727871902,0.0443392231571,-0.0136964600316,1.02380954229,0.422000000001,0.45,3,3,2,1058,4
2.63395790784,0.0403743983961,-0.0110561156677,0.0184092096723,0.413000000001,0.45,0,0,2,1059,4
0.0448677593101,1.28683521972,-0.00860148986031,0.0113471310408,0.357000000001,0.45,1,1,2,1060,4
2.37396574193,0.0113531926261,-0.0253276743802,-0.00189099940386,0.420000000001,0.45,0,0,2,1061,4
0.0539301173779,0.0246281348107,1.16627568401,0.261715781946,0.360000000001,0.45,2,2,2,1062,4
0.0625117126315,0.0257441629064,0.020337921145,1.32223118582,0.339000000001,0.45,3,3,2,1063,4
2.35911804781,0.0304131569598,-0.0140775915571,0.0448652660976,0.404000000001,0.45,0,0,2,1064,4
0.0801365726719,0.0119161327155,2.01456300386,-0.0134503573828,0.354000000001,0.45,3,2,-1,1065,4
0.0664151494093,0.0389250777949,1.02117702123,0.0572997314942,0.319000000001,0.45,2,2,2,1066,4
0.0560037639995,1.58220749327,-0.025920338869,-0.0728465202016,0.385000000001,0.45,1,1,2,1067,4
0.0593038363661,-0.0126250612477,1.4404516644,-0.378780534308,0.431000000001,0.45,2,2,2,1068,4
1.70037351685,0.0445609744337,-0.00137737473409,-0.0280212686249,0.565000000001,0.45,0,0,1,1069,4
0.0582264986777,1.7646550087,-0.0268664603655,-0.0761346538887,0.492000000001,0.45,1,1,1,1070,4
0.041082772938,0.0298754707737,-0.0108006805282,1.31195940973,0.508000000001,0.45,3,3,1,1071,4
0.0431115099118,1.02715678554,-0.0173170994066,0.00552179830474,0.513000000001,0.45,1,1,1,1072,4
0.0294747472895,0.0348476575426,1.20479374968,-0.0932127545019,0.415000000001,0.45,2,2,2,1073,4
0.0466787835013,0.0336117957725,-0.0307248058999,1.20301547285,0.411000000001,0.45,3,3,2,1074,4
3.18612822906,0.0180435266091,-0.0173601667802,0.0304398955087,0.428000000001,0.45,0,0,2,1075,4
0.0200076047055,0.0288966196118,0.000522084176069,1.0520218679,0.472000000001,0.45,3,3,1,1076,4
-0.0165164599942,0.0094463824528,1.18391886741,-0.381733066277,0.379000000001,0.45,2,2,2,1077,4
3.88601649078,0.0115893324399,0.00904552364486,-0.0301704058984,0.391000000001,0.45,0,0,2,1078,4
0.0410807459403,1.25019280237,0.0225102656491,0.0270968004505,0.344000000001,0.45,1,1,2,1079,4
1.69342985637,0.0147892392836,0.00908535713274,-0.0343327263062,0.446000000001,0.45,0,0,2,1080,4
0.0819697049308,0.0197334910485,1.1106549386,-0.000800973659456,0.378000000001,0.45,2,2,2,1081,4
3.15824209243,0.341871711848,-0.00105237507504,-0.0846921711836,0.430000000001,0.45,1,0,-1,1082,4
0.0451598576554,0.00261014403002,-0.0112867586219,1.11700610881,0.425000000001,0.45,3,3,2,1083,4
0.0229201216107,1.17067421751,0.0366888221279,0.0977637407808,0.366000000001,0.45,1,1,2,1084,4
0.0520180872168,0.0306297722939,0.0156657929439,1.63544166833,0.514000000001,0.45,3,3,1,1085,5
4.3823526943,0.00767481525114,-0.00196924369986,0.0390628140346,0.416000000001,0.45,0,0,2,1086,5
0.0463384566804,1.16323372096,0.0283080040675,0.104604428681,0.435000000001,0.45,1,1,2,1087,5
0.175999819761,0.0856093198448,1.2851434258,-0.372257173666,0.385000000001,0.45,2,2,2,1088,5
4.43589347578,0.00788198898227,-0.00704135611184,-0.00841861079555,0.330000000001,0.45,0,0,2,1089,5
0.179140925412,0.115212259949,1.13483446735,0.00308636068181,0.290000000001,0.45,2,2,2,1090,5
0.0582174441167,1.05640335238,0.206578298088,0.789738599216,0.347000000001,0.45,1,1,2,1091,5
0.0533092050685,0.0322098957252,0.00307866976245,1.12914154276,0.421000000001,0.45,3,3,2,1092,5
0.0628170282008,1.05598900531,-0.000336368624862,0.0248413649588,0.319000000001,0.45,1,1,2,1093,5
2.64933851,0.0295834720796,0.00548048367629,0.0291608950381,0.379000000001,0.45,0,0,2,1094,5
0.0425532333775,0.027261281236,0.0148060548648,1.30268797886,0.408000000001,0.45,3,3,2,1095,5
0.0328037704983,0.0450739052954,1.00311624402,0.602683933291,0.453000000001,0.45,2,2,1,1096,5
0.0496443341321,0.0368308677001,-0.00154147935856,1.14707730727,0.555000000001,0.45,3,3,1,1097,5
1.94356894223,0.0285192001778,0.0126442301033,0.0471804589774,0.395000000001,0.45,0,0,2,1098,5
0.0286799716595,0.0333375344413,1.32198978821,0.113245717912,0.297000000001,0.45,2,2,2,1099,5
0.00551659049051,1.23835840371,0.015692394914,0.0329190724528,0.405000000001,0.45,1,1,2,1100,5
2.7830401353,0.0310952616382,-0.00951359773551,0.0203760394356,0.363000000001,0.45,0,0,2,1101,5
-0.0801137684203,2.41470118102,-0.0199854933403,-0.173869818782,0.447000000001,0.45,1,1,2,1102,5
0.0306728167128,0.0244838339611,1.08808601083,0.065407870659,0.369000000001,0.45,2,2,2,1103,5
2.00586603355,0.020880342152,0.000173774171362,0.00981155676339,0.452000000001,0.45,0,0,1,1104,5
0.0408495303445,0.0307991990417,-0.00639095219867,0.0742647101366,0.7,0.45,3,-1,0,1106,5
0.0401506670533,1.20011861741,-0.00520079304506,0.0402546692294,0.365000000001,0.45,1,1,2,1106,5
0.0374988531314,0.0209231995246,1.02079276616,-0.0749626019184,0.325000000001,0.45,3,2,-1,1107,5
-0.0201367596356,0.103028440135,1.33245283378,0.351610279401,0.400000000001,0.45,2,2,2,1108,5
0.0442221945307,0.0135916866333,-0.00348912269102,1.37446904191,0.437000000001,0.45,3,3,2,1109,5
0.0208362774668,-0.00897834273527,1.18841901668,-0.433039311472,0.482000000001,0.45,2,2,1,1110,5
0.0620866982466,1.02717475859,0.0472677158243,-0.0546028249075,0.394000000001,0.45,1,1,2,1111,5
1.52461544092,0.0209897286722,-0.00538267321152,-0.0173247560544,0.408000000001,0.45,0,0,2,1112,5
-0.011040620767,-0.00312304670975,1.06210749615,-0.382794747619,0.379000000001,0.45,2,2,2,1113,5
1.58727125089,0.0104201982873,0.0200645427959,-0.0262819732636,0.382000000001,0.45,0,0,2,1114,5
0.0603376937645,0.144077963602,0.00307930262117,0.0167544356311,0.7,0.45,1,-1,0,1116,5
0.0521111743369,0.00957397809073,-0.00716471479503,1.22239675073,0.436000000001,0.45,3,3,2,1116,5
1.38045729602,0.0264178916464,0.00475905395007,0.00065350957273,0.438000000001,0.45,0,0,2,1117,5
0.0683977009424,0.023454430725,0.0140414803649,1.42571755119,0.379000000001,0.45,3,3,2,1118,5
0.129797084285,2.36977515966,0.30607213345,0.100676008054,0.402000000001,0.45,1,1,2,1119,5
0.107684265581,0.0167119263454,1.51854064628,-0.239822936596,0.351000000001,0.45,2,2,2,1120,5
0.0539225846275,0.0082635859585,0.0014252992726,1.22494745285,0.384000000001,0.45,3,3,2,1121,5
0.0632082067409,1.14781233875,0.0225807006774,0.0714176026629,0.427000000001,0.45,1,1,2,1122,5
1.05743924177,0.0286388934546,0.00509583736767,0.00555649778627,0.451000000001,0.45,0,0,1,1123,5
0.0443754191677,0.0376540641068,1.08937466838,-0.0754742352397,0.369000000001,0.45,2,2,2,1124,5
4.38151908544,0.00840451174118,0.00361363289595,-0.0291859432414,0.443000000001,0.45,0,0,2,1125,5
0.0293401702065,1.19116217798,-0.0193253195787,-0.0468625757523,0.452000000001,0.45,1,1,1,1126,5
0.0207716870163,0.0250034039112,1.6592596001,-0.00238127759436,0.364000000001,0.45,2,2,2,1127,5
0.0659567461135,1.16635000276,0.0389841771307,0.0899965845057,0.362000000001,0.45,1,1,2,1128,5
0.0470847106942,0.0303509511644,-0.000120501829081,1.16282811014,0.398000000001,0.45,3,3,2,1129,5
0.139085439341,0.044658914458,0.427324528351,1.14233506289,0.443000000001,0.45,2,3,-1,1130,5
0.0600130550088,0.0244073139153,-0.00062331800066,0.409969292126,0.7,0.45,3,-1,0,1132,5
1.17778842587,0.0220534600575,0.0101993649692,0.00923769286035,0.452000000001,0.45,0,0,1,1132,5
0.00742793386212,0.030355539018,-0.0057288116505,1.15806438068,0.468000000001,0.45,3,3,1,1133,5
0.0306673957774,1.05114001548,0.0527868749732,0.0876301700853,0.363000000001,0.45,2,1,-1,1134,5
0.0380973200564,1.21981960524,0.0129301962845,0.012528303113,0.327000000001,0.45,1,1,2,1135,5
1.32721944834,0.0273205219838,-0.0254232015412,-0.0271477388401,0.346000000001,0.45,0,0,2,1136,5
0.0218971227966,1.38850947811,-0.0209637231122,0.00196560627174,0.443000000001,0.45,1,1,2,1137,5
0.0195253655617,0.0207671764631,2.18581962634,-0.0875622253441,0.354000000001,0.45,2,2,2,1138,5
2.35179795068,0.01755650617,0.0196806554033,-0.0114629277327,0.420000000001,0.45,0,0,2,1139,5
0.0373898049685,0.0279483197562,0.00992826813906,1.57436567761,0.439000000001,0.45,3,3,2,1140,5
1.36000229899,0.0259294917389,-0.0329645708891,-0.0281758972078,0.458000000001,0.45,0,0,1,1141,5
0.0365014828847,0.0256069628902,1.11557787898,0.19960163569,0.437000000001,0.45,2,2,2,1142,5
0.0410869602981,0.0300060604283,0.0232763976871,1.56593749586,0.401000000001,0.45,3,3,2,1143,5
0.0708845005925,1.11337702986,0.00944309146248,-0.0224742063034,0.361000000001,0.45,1,1,2,1144,5
