force_0,force_1,force_2,force_3,rt,rt_threshold,target_finger,selected_finger,score,trial,run
0.396575473176,0.168335148304,0.158321507563,0.210861129956,0.7,0.45,3,-1,0,1,0
0.404738894351,0.160166398291,0.285124884579,1.05428447626,0.249,0.45,0,3,-1,1,0
0.403738968579,0.759627795699,0.161008454004,0.14348154436,0.7,0.45,1,-1,0,3,0
0.363930756746,0.0847476627011,1.04606569757,0.137680080509,0.461,0.45,2,2,1,3,0
1.05532894012,0.478256798037,0.241828555973,-0.0276058629703,0.437,0.45,1,0,-1,4,0
1.20335627139,0.213707252923,0.10019825906,0.0103623774913,0.468,0.45,0,0,1,5,0
-0.0239666047424,0.185533756233,1.00324266633,0.0185167027713,0.473,0.45,2,2,1,6,0
0.0505843570062,0.0972924083339,0.200527996068,1.00323083048,0.47,0.45,3,3,1,7,0
0.221185386678,1.00841088266,0.116353472859,-0.0140003747812,0.44,0.45,1,1,2,8,0
0.036102968939,0.201500671662,0.260897705572,1.00539830075,0.518,0.45,3,3,1,9,0
0.156965526272,0.110906438211,0.417416594707,0.0894634509215,0.7,0.45,2,-1,0,11,0
1.18427110658,0.0158476125195,0.0829792102425,0.0363040299671,0.434,0.45,0,0,2,11,0
0.202437545457,0.223331494097,0.233899502748,1.10899753071,0.478,0.45,3,3,1,12,0
1.00873003528,0.165330684301,0.109588994505,0.0509968700297,0.446,0.45,0,0,2,13,0
0.417912190028,0.158538566868,1.06766882664,0.123436861573,0.5,0.45,2,2,1,14,0
1.11356784896,0.141939698629,0.183921549192,-0.0137263124134,0.47,0.45,1,0,-1,15,0
1.07685935787,0.113691658348,0.0891845900097,0.0467353135766,0.428,0.45,0,0,2,16,0
0.321093582167,1.07812050336,0.294607491286,-0.0486990847578,0.428,0.45,1,1,2,17,0
0.222122771648,0.544795045227,1.00981513468,-0.00504272150586,0.447,0.45,2,2,2,18,0
0.568142120114,1.04164671074,0.169663703522,-0.021390349165,0.408,0.45,0,1,-1,19,0
0.399782466825,0.170334202071,0.129652195478,0.575291972103,0.7,0.45,3,-1,0,21,0
-0.0211902034596,0.414279948315,1.08256173773,0.0607710676454,0.501,0.45,2,2,1,21,0
0.55749024439,0.261258089114,0.211754489636,1.06277038296,0.59,0.45,3,3,1,22,0
0.408213039518,1.02712523453,0.126376104937,0.0687842330339,0.483,0.45,1,1,1,23,0
0.518499880229,0.186460316557,0.0568643001285,-0.00123130700839,0.7,0.45,3,-1,0,25,0
0.631708073523,0.194012203913,0.0853996467442,1.03254142772,0.134,0.45,0,3,-1,25,0
0.372939596016,0.169125659589,0.0935268359537,0.0727815090415,0.7,0.45,2,-1,0,27,0
0.380437860563,0.171948651936,0.113297100514,0.0236496510046,0.7,0.45,1,-1,0,28,0
0.401376535295,0.153609220368,0.0819751190786,-0.0253250504257,0.7,0.45,0,-1,0,29,0
0.709197541506,1.08141754743,0.0792287888536,-0.0266504190487,0.402,0.45,1,1,2,29,0
0.205434211224,0.203686238455,1.02773345259,-0.00487498638012,0.387,0.45,2,2,2,30,0
0.302350841539,0.0921806480036,0.17877239032,1.03136315628,0.355,0.45,3,3,2,31,0
0.502983283774,1.08515280869,0.0521506566629,-0.0636372116244,0.348,0.45,1,1,2,32,0
0.325201049523,0.0341626817241,0.0765524366792,1.02863934961,0.446,0.45,3,3,2,33,0
0.414524629053,0.107762797446,1.05543324731,0.0290844236942,0.428,0.45,2,2,2,34,0
1.06688275274,0.112853610543,0.0343967478454,-0.0816990882169,0.342,0.45,0,0,2,35,0
0.286571177144,0.108610190989,0.0640872879224,1.04789529132,0.439,0.45,3,3,2,36,0
1.29324864491,0.193859568585,0.0339397657941,0.00911004321154,0.402,0.45,0,0,2,37,0
0.506226589223,1.08063890864,0.0883393474376,0.00871502159286,0.375,0.45,1,1,2,38,0
0.350173035453,0.130061112911,1.05965610423,0.0025513135117,0.31,0.45,2,2,2,39,0
0.232570614752,1.04687894106,0.103945216849,-0.010408248445,0.449,0.45,1,1,2,40,0
1.14423827503,0.0655786286772,0.0699060310642,0.0341779287061,0.32,0.45,0,0,2,41,0
0.339225499857,0.156746094285,1.07194526268,0.0207136812543,0.47,0.45,2,2,1,42,0
1.04626286873,0.143599587059,0.0814358200261,-0.0233837917238,0.463,0.45,0,0,1,43,0
0.403768187981,0.138929989343,0.157041657484,1.09330509832,0.469,0.45,3,3,1,44,0
0.541068063475,1.03328917087,0.0838104001783,-0.0255013246242,0.476,0.45,1,1,1,45,0
0.291520319735,0.0582081257928,0.182538677761,1.03641175949,0.422,0.45,3,3,2,46,0
0.322323753061,0.10217218929,1.00471414963,-0.00156035211819,0.371,0.45,2,2,2,47,0
0.595158428374,0.0959147213105,0.0487698724573,1.05626050499,0.416,0.45,3,3,2,48,0
0.542454899195,0.133038177069,1.03006252046,0.0501702335805,0.436,0.45,2,2,2,49,0
1.01786286036,0.139476239966,0.164777423261,-0.0160904677968,0.457,0.45,1,0,-1,50,0
1.13974558855,0.0888391303098,0.0807870034277,0.0581821706385,0.401,0.45,0,0,2,51,0
0.407683113703,1.19202035952,0.0532187305526,0.0240119805177,0.374,0.45,1,1,2,52,0
0.39105355573,0.154077363362,1.05559235175,-0.0257848563892,0.364,0.45,2,2,2,53,0
1.07327257966,0.414645548418,0.0864674547351,0.0212435666994,0.43,0.45,0,0,2,54,0
0.302021082705,0.125477908927,1.04028977591,0.111684405281,0.432,0.45,2,2,2,55,0
0.523776485472,0.0710936270597,0.082786756101,0.320500956926,0.7,0.45,3,-1,0,57,0
0.551230227533,0.0744785668809,0.060835743615,1.05399570435,0.2,0.45,1,3,-1,57,0
0.588706676716,0.186825107406,0.0609371181078,1.12927417033,0.537,0.45,3,3,1,58,0
1.18877508998,0.116810325631,0.00860420710587,-0.0499465627257,0.38,0.45,0,0,2,59,0
0.279425227537,0.0768751883959,1.02792677535,0.0994814461073,0.404,0.45,3,2,-1,60,0
0.513332257911,1.05420296648,0.00851812393623,-0.0467740079741,0.417,0.45,2,1,-1,61,0
0.408825337815,1.01227859882,0.0205502986393,0.0505433207803,0.53,0.45,1,1,1,62,0
1.26150237723,0.0972194518231,0.0134130327918,-0.0138409159192,0.356,0.45,0,0,2,63,0
0.64193279953,1.14636801027,0.048252198127,-0.0641833991646,0.54,0.45,1,1,1,64,0
0.277282552614,0.117287493638,1.0066362334,0.017698231667,0.448,0.45,2,2,2,65,0
1.17184901084,0.159502741678,0.0845532489676,0.0434193391699,0.449,0.45,0,0,2,66,0
0.393180948071,0.113362413275,0.134775978438,1.00476786327,0.436,0.45,3,3,2,67,0
0.473863784354,1.15617064334,0.0360422268597,-0.066192366552,0.407,0.45,1,1,2,68,0
0.109591604669,0.163506510965,0.0316525818499,0.310189939047,0.7,0.45,3,-1,0,70,0
0.160824498553,0.109409091803,0.0313269805993,1.11242025156,0.116,0.45,0,3,-1,70,0
0.232056466387,0.0665843054343,1.07610079438,0.0759898163729,0.7,0.45,2,-1,0,72,0
0.232056466387,0.0665843054343,1.07610079438,0.0759898163729,0.00400000000004,0.45,3,2,-1,72,0
0.516358251028,1.01137394165,0.194333164466,0.00652906372209,0.603,0.45,1,1,1,73,0
-0.0334930064896,0.122642645755,1.03650574984,-0.0042167919718,0.484,0.45,2,2,1,74,0
1.02792690314,0.0496667642619,0.0566351119886,0.0317215876867,0.383,0.45,0,0,2,75,0
0.156117567654,0.0436084880935,1.02879204368,0.00379022534819,0.422,0.45,2,2,2,76,0
0.319351513196,1.23287208523,0.0435124368745,-0.0492210029302,0.382,0.45,1,1,2,77,0
1.1312601664,0.1181511745,0.0528367178278,0.0161278225205,0.318,0.45,0,0,2,78,0
0.43055649599,1.0736182568,0.078883099307,0.0173900455826,0.479,0.45,1,1,1,79,0
0.272520266253,0.073448910131,0.422188614049,1.09907098368,0.444,0.45,3,3,2,80,0
0.323816535977,0.100762378788,1.02173632906,0.000981948575818,0.479,0.45,2,2,1,81,0
0.502091872381,0.143579718027,0.0615285805283,0.651212336955,0.7,0.45,3,-1,0,83,0
0.522738199911,0.154668028341,0.0682026549933,1.0143806415,0.035,0.45,0,3,-1,83,0
0.31497642874,0.0680432681913,0.037703790846,1.00740154258,0.558,0.45,3,3,1,84,0
1.04647433505,0.068920241248,0.0074302010601,-0.0674214884325,0.415,0.45,0,0,2,85,0
0.51729858931,1.0787356327,0.0572637170698,-0.017260017563,0.44,0.45,1,1,2,86,0
0.270644228791,0.0741757540334,1.02073938187,0.118110925576,0.442,0.45,2,2,2,87,0
1.26273700002,0.0957338372048,0.0178539219817,-0.00830275627316,0.394,0.45,0,0,2,88,0
0.117253508027,0.0746815008617,1.007376983,-0.0039317408186,0.466,0.45,2,2,1,89,0
1.10869542304,0.0713896584136,0.000716908399413,0.00224761877889,0.314,0.45,1,0,-1,90,0
1.1790424266,0.189943664774,0.0420472871684,0.00699053745557,0.292,0.45,0,0,2,91,0
0.290116858871,0.0742370180884,0.0822529373723,1.05032768717,0.428,0.45,3,3,2,92,0
0.282712062297,0.0727076014913,1.01629842315,0.0030951494334,0.473,0.45,2,2,1,93,0
0.266536052699,0.0109981579414,0.0486872194331,1.03832825507,0.598,0.45,3,3,1,94,0
0.531000561553,1.03930322922,0.170139768602,0.0209178844242,0.536,0.45,1,1,1,95,0
0.411651375212,0.0986720617329,0.0557376774347,1.03294492129,0.479,0.45,3,3,1,96,0
0.246751548172,0.073872187973,1.02295769119,0.0409813402903,0.417,0.45,2,2,2,97,0
1.1854101703,0.815838982231,0.0752699675637,0.00382083980521,0.372,0.45,0,0,2,98,0
0.461682435043,1.17038488353,0.0977907143916,0.0676358929585,0.347,0.45,1,1,2,99,0
0.144283837192,0.172865855111,1.12184710662,0.0699517862143,0.402,0.45,2,2,2,100,0
0.257987251585,1.14776399975,0.0589814637394,-0.014236299646,0.531,0.45,1,1,1,101,0
1.17969342729,0.22347562307,0.0394100903352,0.0945723150738,0.408,0.45,0,0,2,102,0
0.320768779545,0.0949702948442,0.0427057633474,1.01459217491,0.464,0.45,3,3,1,103,0
0.368345431016,1.00933561521,0.104694732589,-0.0431060717767,0.586,0.45,1,1,1,104,0
0.0558514711174,0.0357061069623,0.182349486298,1.04620503444,0.509,0.45,3,3,1,105,0
1.22083012319,0.0833479601216,-0.00153481842214,-0.00974195016843,0.498,0.45,0,0,1,106,0
0.384750868728,0.0978265938765,1.01515348828,0.072756531987,0.504,0.45,2,2,1,107,0
0.366747232377,0.0263847981792,0.00470941374034,1.03582034657,0.454,0.45,3,3,1,108,0
1.11888042006,0.00402862183605,-0.00550898023567,-0.045919758418,0.363,0.45,0,0,2,109,0
0.420486408645,1.1215056169,-0.00760159347638,-0.00400131175093,0.425,0.45,1,1,2,110,0
0.357029583139,0.0651037321028,1.07374355061,0.0419664252183,0.437,0.45,2,2,2,111,0
-0.0237008959336,1.00573467334,0.0580784702096,-0.00441476478108,0.668,0.45,1,1,1,112,0
1.06286911976,0.147111548353,0.0416047568014,0.0164399435333,0.419,0.45,0,0,2,113,0
0.354023302071,0.0579412491062,0.2393516745,0.0825287061734,0.7,0.45,2,-1,0,115,0
0.322966382587,0.0339560096268,1.01806412785,0.0721461681729,0.159,0.45,0,2,-1,115,0
0.458728385161,0.0243591794092,0.0133590503899,1.05987698853,0.394,0.45,3,3,2,116,0
0.444367412282,1.10470119036,0.0123771579007,-0.0403731611474,0.379,0.45,1,1,2,117,0
0.505971959569,0.135145732504,0.0161824992961,1.02981157872,0.419,0.45,3,3,2,118,0
0.278831162042,0.0735433594005,1.05474393554,-0.010331858524,0.388,0.45,2,2,2,119,0
0.230210047265,0.0426311304153,0.211985558951,1.0143902456,0.476,0.45,3,3,1,120,0
0.323906140733,0.366353506025,0.0285010378642,-0.00886754005784,0.7,0.45,1,-1,0,122,0
0.29432768653,1.17227207714,-0.000272876017416,-0.0377859483255,0.115,0.45,0,1,-1,122,0
0.116910923283,0.06957596977,1.12753967858,0.0239651225235,0.441,0.45,2,2,2,123,0
1.11212464375,0.0464674441167,0.00748484582066,0.0334628063381,0.367,0.45,0,0,2,124,0
0.131744772746,1.09173586861,-0.00717589085832,-0.0162989791921,0.427,0.45,1,1,2,125,0
0.234692335165,0.0994135740989,1.05015073219,0.0692873291518,0.377,0.45,2,2,2,126,0
0.509741079081,0.0510381002631,0.0855533212604,1.0532537823,0.365,0.45,3,3,2,127,0
1.15144767655,0.101801665879,0.0380197677421,-0.0667959086946,0.337,0.45,0,0,2,128,0
0.128413936197,0.0435527266031,0.0249068439786,0.0968640897808,0.7,0.45,3,-1,0,130,0
0.176952373922,0.175236246425,1.01757774035,0.0370891183388,0.56,0.45,2,2,1,130,0
0.434551477356,1.10133563235,0.0179459941749,-0.00624450337135,0.45,0.45,1,1,1,131,0
0.350975976263,0.0582768940765,-0.0043438757385,1.00782223006,0.462,0.45,3,3,1,132,0
0.441092800078,1.07082300487,-0.00469158433762,-0.0542103525461,0.435,0.45,1,1,2,133,0
0.358859546061,0.0705603541765,-0.00744966460366,1.03279506778,0.424,0.45,2,3,-1,134,0
1.24131302337,0.247038353767,0.00778336921037,-0.0710727053128,0.512,0.45,0,0,1,135,0
0.387955030704,0.0320813957808,1.08063221015,0.11007671641,0.516,0.45,2,2,1,136,0
0.24613770576,1.15267038106,-0.00771477667555,0.0388363876056,0.547,0.45,1,1,1,137,0
1.30542205425,-0.0229887682731,-0.00779827009553,0.0023878238174,0.413,0.45,0,0,2,138,0
0.127211637602,0.000353793505372,-0.00781097198112,1.02114907569,0.429,0.45,3,3,2,139,0
0.16320384943,-0.00110478659409,1.05335260333,-0.00786130562702,0.435,0.45,2,2,2,140,0
0.18819331021,0.00123321540426,-0.0155700258838,1.04067139836,0.479,0.45,3,3,1,141,0
1.1968739941,0.116571080372,0.00562289260884,-0.0205554334691,0.416,0.45,0,0,2,142,0
0.445486096594,1.15227472181,0.0274822750112,-0.0223586240296,0.358,0.45,1,1,2,143,0
0.652705015551,0.0165579857961,0.0181354771214,0.794232777469,0.7,0.45,3,-1,0,145,0
0.849396724173,0.0155818887457,0.0176606691037,1.03699289063,0.0280000000001,0.45,1,3,-1,145,0
0.276076369271,0.0940749780271,1.02300440723,0.103220441297,0.613,0.45,2,2,1,146,0
1.20204104013,-0.000883418660457,-0.00587517233617,-0.0166204853332,0.422,0.45,0,0,2,147,0
0.267785079043,1.00977520263,-0.00771426653671,0.0203060748862,0.432,0.45,1,1,2,148,0
1.2512768349,0.0949910083421,-0.0078035904194,0.00422784620545,0.502,0.45,0,0,1,149,0
0.166705973753,0.0401981104928,1.09697969877,0.0372263818734,0.511,0.45,2,2,1,150,0
0.367161159136,1.01231453856,-0.00743775938123,0.0220322419,0.421,0.45,1,1,2,151,0
0.0489933881469,-0.00152133487027,0.239649651537,1.02174109369,0.433,0.45,3,3,2,152,0
1.06167769599,0.189291112596,0.024193957907,-0.0580166342097,0.4,0.45,0,0,2,153,0
0.235882778096,0.0269908561676,0.166381861368,1.00211232025,0.451,0.45,3,3,1,154,0
0.28193275517,-0.00258899943967,0.0173308760389,0.0461574740144,0.7,0.45,2,-1,0,156,0
0.1388550434,-0.00648765748449,-0.00714754456313,1.0064920844,0.441,0.45,3,3,2,156,0
0.0484392100797,0.00170577808846,1.0478925223,0.0318068138616,0.495,0.45,2,2,1,157,0
1.35401996689,-0.00640517048163,-0.00776798936417,-0.0129838264719,0.392,0.45,0,0,2,158,0
0.117756112295,1.03722248551,-0.00781149939931,-0.0193057176431,0.537,0.45,1,1,1,159,0
0.232375965331,0.10640399736,1.03437737098,-0.0336056275394,0.552,0.45,2,2,1,160,0
0.445191295492,1.06457984172,0.0508204318605,-0.00263541811853,0.496,0.45,1,1,1,161,0
1.06055787503,0.163045938117,0.0226688774184,0.00474814233721,0.372,0.45,0,0,2,162,0
0.384747940277,0.136764489299,0.022627517256,1.00868382034,0.529,0.45,3,3,1,163,0
0.508176231729,1.13029604756,0.0233203591378,-0.0618066194305,0.485,0.45,1,1,1,164,0
0.495011109424,0.0619439876764,0.0246031332514,1.03007113319,0.476,0.45,3,3,1,165,0
1.09909009833,0.181721523311,0.0196590151981,-0.00388250953913,0.378,0.45,0,0,2,166,0
0.295670748624,0.0663321547647,1.04508221607,-0.0108067668053,0.414,0.45,2,2,2,167,0
0.614433588938,0.0165866419243,0.0108052327953,1.03882655077,0.365,0.45,3,3,2,168,0
0.487663391633,0.00673636372713,1.02412019751,-0.0534745376667,0.44,0.45,2,2,2,169,0
0.644821379201,1.30615607597,-0.0307126881119,0.0431304138669,0.387,0.45,1,1,2,170,0
1.40010045869,0.00785621542057,-0.0312028251733,-0.0509142098965,0.312,0.45,0,0,2,171,0
0.219870684265,0.0078140976609,1.05842705975,0.0507132266553,0.394,0.45,2,2,2,172,0
1.15606838916,0.0078126344245,-0.000369377373711,0.0163112829574,0.489,0.45,0,0,1,173,0
1.00758121291,-0.00296012546509,-0.00989735005121,0.0531882564782,0.0180000000001,0.45,1,0,-1,174,0
0.300482221451,0.00756071367146,1.02608847991,0.040430723757,0.483,0.45,2,2,1,175,0
0.335902112323,0.0173425337095,-0.00445891774745,1.05721122913,0.395,0.45,3,3,2,176,0
1.0125699585,0.0133918181004,-0.0056305288301,-0.051396523989,0.35,0.45,1,0,-1,177,0
0.347629520827,0.0236705682398,-0.00639313172361,1.0007250281,0.518,0.45,3,3,1,178,0
1.1319674485,0.0447986996471,-0.00441553160149,-0.0477358887521,0.443,0.45,0,0,2,179,0
0.217614413756,0.000639411057761,0.178710629957,1.04010826118,0.479,0.45,3,3,1,180,0
0.116325443306,0.0174657781244,1.08014231863,0.0401036139538,0.568,0.45,2,2,1,181,0
1.14787223352,0.0456999527186,-0.00747181555164,0.0319641103381,0.425,0.45,0,0,2,182,0
0.174267458659,1.14610362741,0.00663160471292,-0.016169140402,0.422,0.45,1,1,2,183,0
1.13476890901,0.0845212598372,-0.00646407127901,-0.0613513197942,0.435,0.45,0,0,2,184,0
0.173639868234,0.11450295428,1.0135935804,-0.0538122307181,0.466,0.45,2,2,1,185,0
1.03111584401,0.0291088080295,0.00339278575355,-0.0380360370245,0.379,0.45,1,0,-1,186,0
0.0582276034112,0.0580894130062,1.0317169953,0.361236481822,0.625,0.45,2,2,1,187,0
0.0116285887033,0.0100964192607,1.04468510823,0.172320134476,0.55,0.45,3,2,-1,188,0
0.179010486682,0.00797154697593,-0.0233370178789,-0.0531750854257,0.7,0.45,1,-1,0,190,0
-0.00836907172103,0.00783054529135,-0.0234270332236,-0.0404529722733,0.7,0.45,3,-1,0,191,0
-0.000889344288324,0.00781452815789,-0.0234363249748,-0.0392187316547,0.7,0.45,0,-1,0,192,0
0.183913760119,0.00911130100422,0.000628104100793,-0.0281079641233,0.7,0.45,3,-1,0,193,0
0.0762112690022,0.0696822068356,0.0289005849862,-0.050098220913,0.7,0.45,2,-1,0,194,0
0.414420202118,0.404745770604,0.110709121383,-0.0449828481927,0.7,0.45,0,-1,0,195,0
0.395016001781,1.185977015,0.065635672182,0.0241032256076,0.508,0.45,1,1,1,195,0
0.317640834331,0.0707289050473,1.06134384475,0.0090002349462,0.405,0.45,2,2,2,196,0
1.17187401384,0.0974362227343,0.0217221330265,0.0164150291681,0.369,0.45,1,0,-1,197,0
1.40158407022,0.200220402665,0.0251679621499,-0.0291638420542,0.412,0.45,0,0,2,198,0
0.311792258451,0.122090073116,0.0125927730904,1.01325568246,0.525,0.45,3,3,1,199,0
0.608608117861,1.09550887574,0.00534688243116,-0.0407737204455,0.482,0.45,1,1,1,200,0
0.197294527773,0.0331276202177,0.0301117490263,1.00980680175,0.463,0.45,3,3,1,201,0
1.09251364932,0.48388263355,0.0566489459789,-0.0653698953168,0.486,0.45,0,0,1,202,0
0.309867441924,0.0728670953,1.00039275688,0.0087407938101,0.506,0.45,2,2,1,203,0
0.57460418853,0.00774093769138,0.024023581045,1.0117438675,0.54,0.45,3,3,1,204,0
1.06322930714,0.00114836189146,-0.00167321328476,-0.0753273995572,0.438,0.45,0,0,2,205,0
0.36485629497,1.06591458045,-0.00705053000034,-0.0801534731506,0.394,0.45,1,1,2,206,0
0.299268396808,0.0874610186788,1.02566712298,0.020765140061,0.416,0.45,2,2,2,207,0
0.00706976737147,0.342450809656,-0.0132152579417,0.0115171052856,0.7,0.45,1,-1,0,209,0
0.00739376205588,1.06877505441,-0.0143700209654,0.0105696525038,0.2,0.45,0,1,-1,209,0
-0.00279438352254,0.0512682237888,1.02101219736,0.072521715367,0.61,0.45,2,2,1,210,0
1.06501627754,0.00734232334719,-0.0302420038614,0.025269633816,0.421,0.45,0,0,2,211,0
0.246173755204,0.000663748038373,-0.0311891292369,1.0728611434,0.49,0.45,3,3,1,212,0
0.428138114403,1.0336334454,-0.0312419378582,-0.0656320429825,0.44,0.45,1,1,2,213,0
0.409234877465,0.0265497555276,0.0078619673249,1.05313654052,0.523,0.45,3,3,1,214,0
0.0863878740219,0.214037338453,-0.0143369456757,0.00470039176211,0.7,0.45,2,-1,0,216,0
0.307120840907,0.0420305765996,-0.0154389076517,1.01923319901,0.629,0.45,3,3,1,216,0
0.419670498365,0.209578539584,0.412570173326,1.08508983237,0.535,0.45,3,3,1,217,1
0.382397139527,0.53714901613,1.16212576015,0.157903973458,0.397,0.45,2,2,2,218,1
1.20778810037,0.291821282062,0.0272693215905,-0.0133335257715,0.309,0.45,0,0,2,219,1
0.558480547788,1.12436868993,0.382170473365,0.0822551324451,0.385,0.45,1,1,2,220,1
0.493107795431,1.03326457795,0.146145006157,-0.046863102861,0.411,0.45,0,1,-1,221,1
0.349641185898,0.169990290909,1.04139904733,0.14039772837,0.38,0.45,2,2,2,222,1
1.02947871031,0.21861815491,0.3372308693,0.0259959443164,0.352,0.45,1,0,-1,223,1
0.322646086863,0.035366799126,0.00928435101992,1.09008699837,0.428,0.45,3,3,2,224,1
1.17537178769,0.0883259298499,0.026582604686,-0.0445049768604,0.394,0.45,0,0,2,225,1
0.118577570107,0.0246911140224,0.0177501178605,0.985296945744,0.7,0.45,3,-1,0,227,1
0.123279702249,0.0243954506335,0.0155753372691,1.0160201779,0.0100000000001,0.45,1,3,-1,227,1
0.176951183145,0.18308568409,0.133822976192,0.0563281243611,0.7,0.45,2,-1,0,229,1
0.188785470366,0.125861881637,0.0906585464055,1.08472838492,0.6,0.45,3,3,1,229,1
1.00280072083,0.105756877265,0.0329202833372,-0.0286226463607,0.464,0.45,0,0,1,230,1
0.374608874579,1.1276462125,0.0329608107185,-0.0225259957672,0.43,0.45,1,1,2,231,1
0.0474217854866,0.154035512664,1.09709786781,0.118928382931,0.563,0.45,2,2,1,232,1
1.00226779128,0.0509955044458,-0.00240543929159,-0.00484317114709,0.413,0.45,1,0,-1,233,1
1.06480543471,0.137924803934,-0.00657862071873,-0.0194518739579,0.448,0.45,0,0,2,234,1
0.107539523954,0.0601020123726,1.0379663694,-0.0302469185437,0.397,0.45,2,2,2,235,1
1.02516185211,0.564001431473,0.0154849606183,-0.0303512841402,0.506,0.45,0,0,1,236,1
0.136469534557,0.00271581840609,0.0116602454055,1.02994979787,0.43,0.45,3,3,2,237,1
0.418494302651,1.06927523902,0.00712919798276,-0.066803001324,0.422,0.45,1,1,2,238,1
0.0269734586971,0.0184945636532,0.0238088875179,1.07889736697,0.356,0.45,3,3,2,239,1
0.187428541054,0.0568929581685,1.00293010042,-0.0361326513611,0.436,0.45,2,2,2,240,1
0.0863211492181,0.0285346258298,0.000248493946347,1.01047660847,0.509,0.45,3,3,1,241,1
0.316307794904,1.17066870534,2.64720962029e-05,-0.0715379020805,0.494,0.45,1,1,1,242,1
0.0532394873336,0.0240580637822,1.02588140129,-0.0440909948291,0.473,0.45,2,2,1,243,1
1.07630935307,0.10212434148,-0.00749991876221,-0.0537667322687,0.407,0.45,0,0,2,244,1
0.108640838747,0.0629306563994,1.0356926268,-0.0591566374569,0.366,0.45,2,2,2,245,1
0.0464215231246,1.03806601133,0.0157772052394,-0.0434183494064,0.463,0.45,1,1,1,246,1
1.02946408627,0.0423610805219,0.00012075029371,-0.0305197496831,0.341,0.45,0,0,2,247,1
0.0650920232735,0.0224116959307,0.0444807420003,1.12398679988,0.414,0.45,3,3,2,248,1
0.215116245911,0.0523596676867,1.00851790163,-0.0599234983873,0.477,0.45,2,2,1,249,1
0.198878045948,0.022328750388,0.0135011248603,1.0368089384,0.525,0.45,3,3,1,250,1
1.15745293023,0.0401721069161,0.0144529960256,-0.064174910927,0.432,0.45,0,0,2,251,1
0.25316161701,0.344676180975,0.060242740835,-0.0474922904529,0.7,0.45,1,-1,0,253,1
0.0935787447671,0.0894015204754,0.0133838667199,0.00307354185329,0.7,0.45,3,-1,0,254,1
0.0165525431391,0.0346188204119,0.0736165896064,1.10896481475,0.12,0.45,2,3,-1,254,1
0.267911599215,0.145674050706,0.108665950684,-0.053625716512,0.7,0.45,0,-1,0,256,1
0.443281173231,1.34205032442,0.0336655868313,-0.0467288259,0.531,0.45,1,1,1,256,1
0.272881536066,0.116831957138,1.02542322546,-0.0435670651081,0.397,0.45,2,2,2,257,1
0.335893286714,1.06267236997,0.0407400053128,-0.00597639425479,0.529,0.45,1,1,1,258,1
1.02222652436,0.0238039375848,0.0244301316458,0.00961904917985,0.333,0.45,0,0,2,259,1
0.210553113922,0.100798644015,0.0367927235304,1.00969382891,0.442,0.45,3,3,2,260,1
0.389197778778,1.09697617125,0.0191246116348,-0.052644182205,0.392,0.45,1,1,2,261,1
0.0857053224696,0.0117012949346,0.0945499489573,1.09251505617,0.465,0.45,3,3,1,262,1
1.10393765103,0.0781160466786,0.0144830799056,-0.0773677204175,0.421,0.45,0,0,2,263,1
0.254518399188,0.0983184377976,1.00493811252,-0.070773881854,0.385,0.45,2,2,2,264,1
0.206266537359,0.0643112153376,0.00811428636999,1.02352272953,0.495,0.45,3,3,1,265,1
1.02408014962,0.0769914611188,0.00785022520351,-0.0970370467054,0.406,0.45,0,0,2,266,1
0.101579777662,0.0492381164243,1.05622483852,-0.0527451428218,0.416,0.45,2,2,2,267,1
0.281643304769,1.00843162759,0.00067196266286,-0.00807942146843,0.392,0.45,1,1,2,268,1
1.04278743771,0.00940679513366,6.54097604537e-05,-0.0381653291884,0.322,0.45,0,0,2,269,1
0.250515101966,1.12335931453,4.89338498377e-06,-0.0403540755576,0.455,0.45,1,1,1,270,1
0.110869151345,0.079433779614,1.01623460817,-0.0427169636244,0.427,0.45,2,2,2,271,1
1.06367368485,0.0849014263655,0.0392985529974,0.0604653009343,0.56,0.45,0,0,1,272,1
0.150299671397,0.0897818840281,0.0320290347355,1.02824327496,0.507,0.45,3,3,1,273,1
0.198239437462,1.09993866089,0.0162856178871,-0.0486281991245,0.434,0.45,1,1,2,274,1
0.269429329642,0.0204165210056,-0.0131604977835,1.06469690384,0.442,0.45,3,3,2,275,1
0.194808217882,0.0444026900114,0.246775328878,0.0164364996038,0.7,0.45,2,-1,0,277,1
0.268096979517,-0.00194616206668,0.0102242780512,1.01637953896,0.615,0.45,3,3,1,277,1
0.232744764002,-0.00709726608385,1.05618644574,-0.0816671846258,0.585,0.45,2,2,1,278,1
0.310531030338,1.21120491939,0.0235175322597,-0.0648437156068,0.7,0.45,1,-1,0,280,1
0.310531030338,1.21120491939,0.0235175322597,-0.0648437156068,0.00400000000015,0.45,0,1,-1,280,1
0.188172975553,0.0436809136711,1.04247967909,0.178184085257,0.454,0.45,2,2,1,281,1
1.02177702194,0.460284412388,0.000360725373779,-0.0254335812085,0.438,0.45,0,0,2,282,1
0.297794835039,1.1971129482,0.00118504269844,-0.0185858802427,0.454,0.45,1,1,1,283,1
0.0916620981822,0.0273092545935,1.05376326379,-0.0369131113003,0.445,0.45,2,2,2,284,1
0.179916264263,0.0481355421022,0.021042443145,1.03697460033,0.412,0.45,3,3,2,285,1
1.04481882692,0.079067924309,-0.00686469496384,-0.0648603448753,0.359,0.45,0,0,2,286,1
0.0304340504603,0.0484053836865,0.445193958984,1.02193981311,0.405,0.45,3,3,2,287,1
0.401007693375,1.05007643846,-0.00374928667734,-0.0375284858934,0.397,0.45,1,1,2,288,1
0.168709373201,0.0159280586652,-0.0074020067955,1.01664075522,0.406,0.45,3,3,2,289,1
0.295107271386,0.0441618563514,1.01361778617,0.00225942029303,0.521,0.45,2,2,1,290,1
0.431961041437,1.11065645196,0.00827415741624,0.014931282503,0.456,0.45,1,1,1,291,1
1.04192898128,0.0168716335216,0.00786241364355,-0.010552125498,0.333,0.45,0,0,2,292,1
1.03366257659,0.036776692853,0.00781633159705,-0.0564366407479,0.456,0.45,1,0,-1,293,1
-0.0362579364039,0.0635339239001,1.01777764764,0.0365116699091,0.457,0.45,2,2,1,294,1
1.15928413799,0.0229087125765,-0.0151221403948,-0.021318983409,0.386,0.45,0,0,2,295,1
-0.0156233045909,0.0190195443508,0.0587771636104,1.04345805048,0.396,0.45,3,3,2,296,1
0.328487129645,1.14056968259,0.0122615635741,-0.0736461537658,0.426,0.45,1,1,2,297,1
0.103774705154,0.0614483174317,0.00836738667596,1.04560370596,0.394,0.45,3,3,2,298,1
1.16437773348,0.113535929888,0.00989058851387,-0.0790207127415,0.399,0.45,0,0,2,299,1
0.0281813131199,0.0802522193497,1.00438647304,-0.0694187409473,0.356,0.45,2,2,2,300,1
0.198819011474,0.0447996118621,0.0157464158634,1.00953364717,0.491,0.45,3,3,1,301,1
0.109072739488,0.100295619505,0.953975426405,0.0551295556311,0.7,0.45,2,-1,0,303,1
0.256937322711,1.0072668501,-0.0126204856921,-0.0279635323843,0.512,0.45,1,1,1,303,1
1.08991712075,0.0934122304498,-0.0154907465701,-0.0666206009719,0.427,0.45,0,0,2,304,1
0.327795206965,1.12351426498,-0.0133490247556,-0.0661713750059,0.44,0.45,1,1,2,305,1
0.0667940012076,0.0374873824395,1.06495920456,0.182036861394,0.587,0.45,2,2,1,306,1
1.00251735725,0.0110327439165,0.135297903314,-0.0311119729442,0.455,0.45,0,0,1,307,1
0.0805827418383,0.00817116792136,1.06389977329,-0.0290086885409,0.457,0.45,2,2,1,308,1
0.164460206585,0.00786466447043,0.0521771029966,1.01032910007,0.378,0.45,3,3,2,309,1
1.05373955797,0.0425076965858,0.0475446508896,-0.069772505545,0.376,0.45,0,0,2,310,1
0.00800980860259,0.0468811008145,0.0541427743869,1.09649296955,0.458,0.45,3,3,1,311,1
0.324709674655,1.07688994095,0.00605441851857,-0.0788238674365,0.375,0.45,1,1,2,312,1
0.0779049610567,0.0377733961766,0.0125860890995,1.00485256283,0.364,0.45,3,3,2,313,1
1.10535119118,0.0415755894687,0.01604248294,-0.0980912727337,0.345,0.45,0,0,2,314,1
0.142298507287,0.0756006937793,1.0425854809,-0.0250137863272,0.36,0.45,2,2,2,315,1
0.413032619702,1.01290238946,0.000327813884363,-0.022088282965,0.361,0.45,1,1,2,316,1
1.16546087783,0.0706264125099,3.40805737373e-05,-0.0114305864635,0.295,0.45,0,0,2,317,1
0.339505173702,1.07537397641,-0.0296831800383,-0.0368865603154,0.467,0.45,1,1,1,318,1
0.113301542411,0.126927184938,0.350083939526,0.0587875096823,0.7,0.45,2,-1,0,320,1
0.0346774417694,0.034501133096,0.0504419309775,1.04343113436,0.541,0.45,3,3,1,320,1
0.0956931990444,0.0493261583539,1.02424374437,-0.067811212238,0.538,0.45,2,2,1,321,1
1.04867599933,0.0247150983904,-0.00688945396811,-0.0136830612638,0.434,0.45,0,0,2,322,1
-0.0191776116657,0.0436529748523,0.0240644545449,1.0884704379,0.455,0.45,3,3,1,323,1
0.398127428767,1.00551393149,0.0286772489293,-0.0588784788831,0.478,0.45,1,1,1,324,1
0.0244207041779,0.0663801596672,-0.00454898415464,1.03710998144,0.435,0.45,3,3,2,325,1
0.137441246263,0.0724031490085,1.02875936459,-0.041930115352,0.451,0.45,2,2,1,326,1
0.194381303497,1.08814476276,0.0084289402376,-0.0589496003294,0.368,0.45,1,1,2,327,1
1.07933946709,0.0320962904381,0.00786438679065,-0.0354451854851,0.286,0.45,0,0,2,328,1
0.233598814421,0.0632892889813,1.12332641597,-0.0272811623501,0.493,0.45,2,2,1,329,1
1.04030126282,0.164335318949,0.0576687571222,-0.0612430663375,0.453,0.45,0,0,1,330,1
0.142906521817,1.1731963407,0.0187718706106,-0.0526286179817,0.462,0.45,1,1,1,331,1
0.168294750607,0.0238792711797,0.01517791565,1.07271144657,0.424,0.45,3,3,2,332,1
1.09136525445,0.138055156841,0.0116606280931,-0.0912720533223,0.423,0.45,0,0,2,333,1
0.0271840953089,0.0394575583354,0.0692237172188,1.10262013373,0.428,0.45,3,3,2,334,1
0.378559612963,1.05744367505,0.0218825025089,-0.0482153697488,0.467,0.45,1,1,1,335,1
0.147644001402,0.0293119973274,1.01324346766,0.0423339858796,0.489,0.45,2,2,1,336,1
0.13081936559,0.0184515380237,0.0158067825199,1.07637658592,0.55,0.45,3,3,1,337,1
1.12543022987,0.0162118562007,0.0173173214932,-0.0686399807658,0.349,0.45,0,0,2,338,1
0.168747527881,1.1652198796,-0.012837164825,-0.0749742916659,0.363,0.45,1,1,2,339,1
0.151848621035,0.0773283631405,1.040755893,-0.0187051150037,0.372,0.45,2,2,2,340,1
1.16563806025,0.0844173768885,0.0812330994881,-0.00621487456422,0.444,0.45,0,0,2,341,1
0.0770368933939,0.0591172040221,1.01700020538,-0.0538542987743,0.421,0.45,2,2,2,342,1
0.151640095538,1.00534696383,0.0299010439939,-0.0372167430758,0.534,0.45,1,1,1,343,1
0.137631626579,0.0315026390983,-0.00147464906877,1.07240759358,0.52,0.45,3,3,1,344,1
0.146448261207,0.0528888908515,1.00847775943,-0.0458290178745,0.624,0.45,2,2,1,345,1
0.106847756508,0.033601366174,0.04423512582,1.02303521763,0.535,0.45,3,3,1,346,1
0.203133865793,1.01795209253,0.0142317493542,-0.0626302890648,0.561,0.45,1,1,1,347,1
1.11848878039,0.0391956322946,0.00870953277328,-0.0183447604378,0.473,0.45,0,0,1,348,1
0.16968013351,0.0435051226796,0.00790426267641,1.08524687115,0.507,0.45,3,3,1,349,1
0.201351925037,0.0693610324406,1.02376184574,-0.0340151689358,0.681,0.45,2,2,1,350,1
1.12695636086,0.0149312747624,0.00404705015495,0.00355874968582,0.431,0.45,0,0,2,351,1
0.228074239515,1.00896798828,9.17874829351e-05,-0.0324041653567,0.47,0.45,1,1,1,352,1
0.0979141412565,0.0341204350981,1.0271582706,0.041965999021,0.588,0.45,2,2,1,353,1
0.258975792329,1.0285808889,0.00821061037305,-0.0351034564557,0.561,0.45,1,1,1,354,1
1.1252728822,0.0428081012134,0.00785388071691,-0.0207009241169,0.412,0.45,0,0,2,355,1
0.0924447563197,0.0973561424932,1.02897766676,-0.0544336876839,0.44,0.45,2,2,2,356,1
0.156038334506,0.113717308498,0.0530338028767,1.04335964657,0.538,0.45,3,3,1,357,1
0.124973341665,1.07252888734,0.522845912698,-0.0435137576442,0.631,0.45,1,1,1,358,1
0.0422289583591,0.0338045402385,0.0141071713165,1.03037480882,0.493,0.45,3,3,1,359,1
1.23196955755,0.145209965592,-0.00440189397969,-0.0625945884812,0.443,0.45,0,0,2,360,1
0.149295259292,0.0976627804252,-0.00744308448562,1.06688608028,0.454,0.45,3,3,1,361,1
0.360473132849,1.06465558975,-0.00775892409796,-0.0557932971647,0.376,0.45,1,1,2,362,1
0.236037162733,0.097560198291,0.0163174420164,1.03237189804,0.392,0.45,2,3,-1,363,1
1.08740076174,0.303285282232,0.0134582557809,-0.0658478678774,0.434,0.45,0,0,2,364,1
0.128218576919,0.085471723002,1.01511465526,-0.053123662079,0.408,0.45,2,2,2,365,1
0.23958624859,1.10357011338,-0.00748994432817,-0.0160785376324,0.469,0.45,1,1,1,366,1
1.21116557325,0.0729423561548,-0.00778323472578,-0.011477392927,0.483,0.45,0,0,1,367,1
0.247350840299,0.0190434524349,-0.00780929612363,1.02872003801,0.495,0.45,3,3,1,368,1
1.01985427324,0.113590323754,0.0400423894999,-0.0516018369001,0.376,0.45,0,0,2,369,1
0.229710024974,1.10037764149,0.0209699399785,-0.0658979841641,0.36,0.45,1,1,2,370,1
0.130453832951,0.0609080655313,0.0578045086303,1.0947437675,0.591,0.45,3,3,1,371,1
0.148179216684,0.0929397925907,0.794050264504,-0.0156678083398,0.7,0.45,2,-1,0,373,1
0.301440735123,0.0725997666865,0.0144881212153,1.01308847965,0.575,0.45,3,3,1,373,1
1.01355210318,0.42363311572,0.00797510844341,-0.0548148536463,0.594,0.45,1,0,-1,374,1
1.11712223917,0.0531421326027,0.00137264080949,0.0989766887915,0.443,0.45,0,0,2,375,1
0.161593432076,0.0515655465689,1.0511727032,0.0340869230576,0.531,0.45,2,2,1,376,1
1.06514203303,0.0214891355196,0.00813707507442,0.0263006525502,0.431,0.45,0,0,2,377,1
0.138617265638,1.09862300496,-0.0213281326496,-0.0102353309952,0.38,0.45,1,1,2,378,1
0.105251510681,0.0754613479314,0.0611439981918,0.174287940928,0.7,0.45,2,-1,0,380,1
0.137283419225,0.36211156753,0.00549023203069,-0.0648868572039,0.7,0.45,1,-1,0,381,1
0.105774995878,1.1079112325,0.00221408518107,-0.0657698674702,0.0400000000002,0.45,3,1,-1,381,1
0.151508446324,0.166610280006,0.0133318947936,-0.0310385455888,0.7,0.45,2,-1,0,383,1
0.138561457238,0.192966426936,0.0153630114794,-0.0276532140838,0.7,0.45,3,-1,0,384,1
1.32869205024,0.217367977035,0.0155273846205,0.00351303511092,0.323,0.45,0,0,2,384,1
0.185042663537,0.139086707268,0.043965286371,1.06042257629,0.541,0.45,3,3,1,385,1
0.369371958737,1.00030414548,0.00512742934212,-0.0503769129207,0.452,0.45,1,1,1,386,1
1.0700401877,0.0922127155307,0.000891243854196,-0.0402511908367,0.31,0.45,0,0,2,387,1
0.216243413401,0.133006832439,1.07117229828,-0.0273133975687,0.392,0.45,2,2,2,388,1
1.00351856208,0.0897741279201,0.0442929086918,-0.0107556681062,0.385,0.45,0,0,2,389,1
0.412524324677,1.06055691482,0.00820646818688,-0.0683780875488,0.424,0.45,1,1,2,390,1
0.353848931583,1.05622830746,-0.0133444877457,-0.0264810463327,0.397,0.45,2,1,-1,391,1
0.149527325732,1.01374012618,0.0263008630869,-0.0209684441194,0.333,0.45,1,1,2,392,1
0.322332387472,0.0562818298103,-0.00703133279465,1.13958031557,0.513,0.45,3,3,1,393,1
0.182303608928,0.0828107675178,0.663640774755,0.0428851564316,0.7,0.45,2,-1,0,395,1
0.132177123666,0.0286337528935,0.0329697006457,1.0205538386,0.569,0.45,3,3,1,395,1
1.92308548877,-0.0037951884378,0.00639226955753,-0.0939031806264,0.502,0.45,0,0,1,396,1
0.271203001842,0.013855874496,0.000697592878432,1.07918504066,0.501,0.45,3,3,1,397,1
1.15281829181,0.0535927944986,9.05531774151e-05,-0.0463864304767,0.473,0.45,0,0,1,398,1
0.164552079762,0.0177611634745,1.00665145073,-0.0146468350131,0.512,0.45,2,2,1,399,1
0.279519807871,1.11216124494,0.00822404564588,-0.0450273213106,0.497,0.45,1,1,1,400,1
0.0935070676021,0.0240808593902,1.01911937729,-0.0629275776844,0.484,0.45,2,2,1,401,1
1.06602115957,0.243479646741,0.000390531675368,0.0210814562955,0.434,0.45,0,0,2,402,1
0.243244514294,1.09939614243,2.56179149669e-05,0.00548881238365,0.482,0.45,1,1,1,403,1
1.19072084779,0.0740536298604,2.92751160103e-06,-0.0496116318502,0.48,0.45,0,0,1,404,1
0.217239120191,0.0372617026339,3.51005695176e-07,1.00395450526,0.464,0.45,3,3,1,405,1
0.349865263225,1.04265434259,4.34836052721e-08,-0.0472518806834,0.437,0.45,1,1,2,406,1
0.152892246291,0.0218559111226,2.13878115218e-09,0.571442503418,0.7,0.45,3,-1,0,408,1
0.171879054701,0.0561649106529,0.94491930305,0.00466393054686,0.7,0.45,2,-1,0,409,1
0.210980159996,0.0549567560418,1.0091146766,0.0273834860887,0.0260000000002,0.45,3,2,-1,409,1
1.13432264731,0.0374773377725,-0.0284555056582,-0.0278483798593,0.361,0.45,1,0,-1,410,1
1.28242645836,0.0149270177087,-0.0309975929352,-0.00907348506493,0.42,0.45,0,0,2,411,1
0.0223720904502,-0.0134145252312,1.13492632551,-0.0366597925697,0.443,0.45,2,2,2,412,1
0.00244146064148,1.02612530053,-0.00214900644081,-0.010349402207,0.375,0.45,1,1,2,413,1
0.0100481694288,-0.00968102246244,0.198160626258,0.0495436480454,0.7,0.45,2,-1,0,415,1
1.58619821043,-0.00825583158278,-0.00573352595512,0.0307144746846,0.537,0.45,0,0,1,415,1
-0.014956140713,1.17858597859,0.0019278051115,0.072144480503,0.519,0.45,1,1,1,416,1
0.307189261317,0.0797107740233,0.893290459399,0.170402466656,0.7,0.45,3,-1,0,418,1
0.0895575229155,0.0302508759185,1.08819017034,-0.0186821652852,0.541,0.45,2,2,1,418,1
0.344337310673,0.0097186728041,-0.0154765457033,1.08510651939,0.552,0.45,3,3,1,419,1
1.18732210934,0.0700127004221,-0.0140513070901,-0.0218958013295,0.425,0.45,0,0,2,420,1
0.0875086918507,0.0715623462727,0.0124202046008,1.11361832794,0.46,0.45,3,3,1,421,1
0.342874215736,1.0440172555,-0.0115056839463,-0.0720051469982,0.429,0.45,1,1,2,422,1
1.10365361378,0.145630320981,0.0072701817638,-0.0163668386953,0.436,0.45,0,0,2,423,1
0.293065702802,0.140750212258,1.02831906336,-0.032228893552,0.462,0.45,2,2,1,424,1
0.473970193168,1.12638133993,0.0150300990192,-0.0340363848759,0.474,0.45,1,1,1,425,1
0.11546695997,0.0814781800234,1.00501031349,0.373748971359,0.483,0.45,2,2,1,426,1
1.01256797992,0.0872377292772,0.074388405324,-0.0774503377311,0.463,0.45,0,0,1,427,1
0.17655359537,0.114264189785,0.0669946168988,1.00312143775,0.544,0.45,3,3,1,428,1
0.160311460258,0.0432943842021,1.01106692765,-0.0483704520219,0.581,0.45,2,2,1,429,1
0.411789991819,0.0159588152822,0.0375222608937,1.0540083216,0.505,0.45,3,3,1,430,1
1.0360341553,0.0394289564796,0.0152743218801,-0.0692180827462,0.491,0.45,0,0,1,431,1
0.277017650834,1.23013994796,0.0334355156093,-0.00502450236283,0.545,0.45,1,1,1,432,1
0.122208011234,0.0437645315288,0.235427281993,1.04852503476,0.556,0.45,3,3,1,433,1
0.278896142207,0.144149361405,0.27137302261,1.03583591042,0.505,0.45,3,3,1,434,2
0.181310526152,0.0832910891809,1.24908109216,0.224317015701,0.353,0.45,2,2,2,435,2
0.313690323056,1.06748787842,0.0506399311922,-0.0295844987983,0.287,0.45,1,1,2,436,2
1.00515442308,0.134329072475,0.0428655709017,0.0277941241924,0.226,0.45,0,0,2,437,2
0.224989444286,1.05664194626,0.196835430545,0.0914260765241,0.424,0.45,1,1,2,438,2
0.00772071168707,0.0973767433681,1.11644037006,0.0467222642697,0.319,0.45,2,2,2,439,2
1.0275873634,0.220599826332,0.0555227823336,0.0473788499536,0.393,0.45,0,0,2,440,2
0.251093456588,0.208133053019,0.109662732807,1.15094670879,0.457,0.45,3,3,1,441,2
0.670406450258,1.14617075607,0.0173563765546,-0.0392254614915,0.359,0.45,0,1,-1,442,2
0.188326101374,0.0114582627033,1.10198189866,0.178230446223,0.32,0.45,2,2,2,443,2
0.42205344664,0.159114570917,0.0509608900047,1.10478205959,0.389,0.45,3,3,2,444,2
0.551649343392,1.05812562447,0.0201656458971,-0.0308491979553,0.379,0.45,1,1,2,445,2
1.00487132177,0.16078028432,-0.00949156290383,0.0275045576412,0.18,0.45,3,0,-1,446,2
1.0316523909,0.0920537361829,0.0279657855119,0.017228046704,0.322,0.45,0,0,2,447,2
0.188893302521,1.05361037967,0.0521922159916,-0.06191063327,0.492,0.45,1,1,1,448,2
0.118090466434,0.0840830729031,1.05185665332,-0.00490393169593,0.426,0.45,2,2,2,449,2
1.04573540306,0.104102617262,0.0354819379114,0.0360521005155,0.398,0.45,0,0,2,450,2
0.0961661109289,0.081676141853,1.05390095578,-0.046680728367,0.346,0.45,2,2,2,451,2
0.414986642683,1.03173422288,0.0725557070086,-0.0144144594218,0.458,0.45,1,1,1,452,2
0.395103575065,0.187239726737,0.0397050632032,1.07735640062,0.424,0.45,3,3,2,453,2
0.152675395965,0.046679349699,1.04544785184,0.0520926369863,0.478,0.45,2,2,1,454,2
0.358514580349,0.178294291385,0.0177926854966,1.03065207016,0.636,0.45,3,3,1,455,2
0.345413661977,1.00416605142,0.0125099756041,-0.0215400950947,0.474,0.45,1,1,1,456,2
1.04879790498,0.228764233064,0.00858941246193,-0.00084568493428,0.341,0.45,0,0,2,457,2
0.456401755386,0.142214859935,-0.0214711450978,1.17308039177,0.49,0.45,3,3,1,458,2
0.56423270482,1.05945053064,0.0801550616078,-0.0696692682107,0.452,0.45,1,1,1,459,2
1.25562259584,0.156648042517,0.00717426764784,0.104500899008,0.31,0.45,0,0,2,460,2
0.153117225617,0.107109103162,1.10340658711,0.0104456447285,0.363,0.45,2,2,2,461,2
1.09847405814,0.0203229734899,-0.0156046870735,0.0257980610953,0.305,0.45,0,0,2,462,2
0.699005789507,1.02116864438,0.0201088643691,-0.00295291144092,0.41,0.45,1,1,2,463,2
0.222360734452,0.105539054209,1.0692965147,0.0607937247843,0.352,0.45,2,2,2,464,2
0.428654146403,0.025158043747,0.154965792301,1.08554471723,0.394,0.45,3,3,2,465,2
0.809043683997,1.08997416394,0.0143166381613,-0.0606329482011,0.371,0.45,0,1,-1,466,2
0.356651990814,0.015848177554,-0.0208270703765,1.05271220649,0.452,0.45,3,3,1,467,2
0.31635337758,0.176029091502,0.0575065309289,0.0487815947967,0.7,0.45,2,-1,0,469,2
0.213608736959,1.02249479747,-0.0298292080245,-0.00460730131926,0.528,0.45,1,1,1,469,2
0.0117171905102,0.0368753162328,1.06985746944,0.087342485547,0.431,0.45,3,2,-1,470,2
0.224797493735,1.20953321082,-0.0199757522758,-0.0569295602545,0.539,0.45,1,1,1,471,2
0.00299421245779,0.0114088073387,1.08948881836,-0.0548990733737,0.446,0.45,2,2,2,472,2
1.17763200049,0.00816306174078,-0.0233469630929,0.0525564494602,0.353,0.45,0,0,2,473,2
0.137305261437,0.114834640369,1.06633696683,0.119122064349,0.468,0.45,2,2,1,474,2
0.546281534063,1.0004368987,0.0485948837579,0.000478555751659,0.42,0.45,1,1,2,475,2
1.21152529292,0.183133773311,0.0180222278761,-0.0144398899732,0.309,0.45,0,0,2,476,2
0.491448984751,0.217517339159,0.104984411855,1.02808057721,0.389,0.45,3,3,2,477,2
0.440271182185,0.151807864788,1.01812026771,-0.00338813763689,0.394,0.45,2,2,2,478,2
0.511615506108,0.307762319047,0.0215999993443,1.0090273131,0.589,0.45,3,3,1,479,2
1.15814671987,0.171159121845,0.0116059061754,-0.081354075056,0.412,0.45,0,0,2,480,2
0.535152719961,1.0727692362,0.0083039910561,-0.0775014850793,0.362,0.45,1,1,2,481,2
0.340392413277,0.132466475106,1.02593860985,0.0379230858941,0.335,0.45,3,2,-1,482,2
0.266708040318,0.175604355949,1.07598054528,0.0146000877689,0.452,0.45,2,2,1,483,2
1.25021234092,0.203744468099,0.0826637834109,-0.038637981368,0.437,0.45,0,0,2,484,2
0.524200919881,1.01055377875,0.0251078985576,-0.0484957468435,0.467,0.45,1,1,1,485,2
0.167657083647,0.106585654794,1.11398085731,-0.00259700336585,0.456,0.45,2,2,1,486,2
0.55785132152,1.04359846715,0.0457917416208,-0.0481506725151,0.388,0.45,1,1,2,487,2
1.28600618815,0.175823098673,0.0172640885514,0.0267368193966,0.385,0.45,0,0,2,488,2
0.428285223346,0.225289749089,0.0628803831791,1.05762959832,0.377,0.45,3,3,2,489,2
0.797807614144,1.1195613796,0.00848256945651,-0.0517487292405,0.37,0.45,1,1,2,490,2
0.472294261019,0.179954063014,0.000762040849081,1.01116462821,0.425,0.45,3,3,2,491,2
1.19881201851,0.148243816019,0.000125489298177,-0.0218294411041,0.306,0.45,0,0,2,492,2
0.317924793017,0.175620924215,1.09077815793,0.042227240903,0.338,0.45,2,2,2,493,2
0.474549057659,0.317307620654,-0.00768059347104,1.05976326354,0.483,0.45,3,3,1,494,2
0.392591493323,1.00438695481,-0.00638679092783,-0.0724096979222,0.431,0.45,1,1,2,495,2
1.06108464682,0.164219443964,-0.00756255526783,-0.0270372199516,0.289,0.45,0,0,2,496,2
0.490810498006,0.198456063929,1.058099412,-0.0549457290515,0.39,0.45,2,2,2,497,2
1.00088614959,0.132038130596,-0.0153438727238,-0.0593547615906,0.286,0.45,1,0,-1,498,2
0.225926358484,0.10391070346,1.04043990771,-0.020850773365,0.661,0.45,2,2,1,499,2
1.0542516394,0.0911735939116,-0.0229834071607,0.018561547448,0.457,0.45,0,0,1,500,2
0.26540002647,1.00022126479,-0.0234151424982,-0.0426248054219,0.396,0.45,1,1,2,501,2
0.30453217137,0.061367888962,0.100133503361,1.02469086772,0.44,0.45,3,3,2,502,2
1.00783094986,0.750183078423,0.0224894732975,-0.0387767295512,0.384,0.45,0,0,2,503,2
0.418502737514,0.0166707078175,-0.00114345040281,1.1413989571,0.439,0.45,3,3,2,504,2
0.532772246455,0.0877396814904,1.05491811132,0.147828560419,0.494,0.45,2,2,1,505,2
0.493386574933,0.0609180129786,0.110373155403,1.0106775424,0.555,0.45,3,3,1,506,2
0.652889849674,1.21207078886,0.0051004851186,0.0133120664146,0.549,0.45,1,1,1,507,2
1.11229161108,0.0245580327833,0.0011725629675,0.161955631461,0.308,0.45,0,0,2,508,2
0.331855853037,0.0234500028996,1.10269567729,0.0391673453999,0.476,0.45,2,2,1,509,2
0.836891671265,1.1538331979,0.0393818573905,0.148149880301,0.453,0.45,1,1,1,510,2
0.48004320041,0.0592873159398,1.02757686056,0.263605377468,0.514,0.45,2,2,1,511,2
1.16789279366,0.0919814254389,0.0522114017596,0.0361792007562,0.391,0.45,0,0,2,512,2
0.515513672156,1.14725304372,0.0758929814083,0.0205806150646,0.511,0.45,1,1,1,513,2
0.28738224711,0.158050195734,0.220855254269,1.06298577321,0.486,0.45,3,3,1,514,2
1.29807300102,0.212169052863,0.0220059239749,-0.0302274039157,0.472,0.45,0,0,1,515,2
0.439078035466,0.049784433352,0.196619648255,1.00686314686,0.607,0.45,3,3,1,516,2
0.493617829365,0.0136695805068,1.01707173005,-0.0645519984638,0.593,0.45,2,2,1,517,2
0.75558893629,0.0394694951543,0.0882745025737,1.04167534319,0.541,0.45,3,3,1,518,2
1.25552852528,0.0174671812644,0.0145284605893,-0.0599555927294,0.441,0.45,0,0,2,519,2
0.572002653789,1.17070936427,0.00868607218937,0.0404759242006,0.378,0.45,1,1,2,520,2
0.425288310625,0.0988955808321,1.04342129622,0.187673669567,0.354,0.45,2,2,2,521,2
1.08158131452,0.102746923947,0.0316420063073,0.0138216545424,0.344,0.45,1,0,-1,522,2
1.00653127212,0.23297979088,-0.0119823617578,-0.0134147815616,0.23,0.45,0,0,2,523,2
0.370307015219,0.170606198806,1.10163190889,0.0212179804754,0.336,0.45,2,2,2,524,2
1.00130421693,0.128613257085,-0.0151211067126,0.0642251100167,0.191,0.45,0,0,2,525,2
0.428224236647,0.117833685104,0.0119532730685,1.05125355883,0.439,0.45,3,3,2,526,2
0.26319635988,0.0827741652436,1.00685614064,-0.0675694830782,0.433,0.45,2,2,2,527,2
0.546670680422,0.0774809737167,0.0241200844412,1.00522502733,0.547,0.45,3,3,1,528,2
0.541168169835,1.06547039461,0.00219428996724,-0.0388677312757,0.538,0.45,1,1,1,529,2
0.322813772642,0.0236883342748,-0.0278194682707,1.09077044144,0.455,0.45,3,3,1,530,2
1.05955770981,0.621833908661,-0.0307312388827,-0.0846113932633,0.361,0.45,1,0,-1,531,2
0.402333223825,0.0759043944117,1.01992984295,0.0986119649162,0.537,0.45,2,2,1,532,2
1.23914290752,0.0244933701839,-0.0306022433592,-0.00686416357617,0.355,0.45,0,0,2,533,2
0.577862766732,1.01718586854,-0.0312236463622,0.0602293340197,0.394,0.45,1,1,2,534,2
1.19296992328,0.00789953291129,-0.0312473577328,0.0262919977425,0.432,0.45,0,0,2,535,2
0.173981993088,0.00782040222051,1.01921139904,0.0693994368579,0.412,0.45,2,2,2,536,2
0.377551925577,0.00781314535598,-0.00778572079267,1.07904964214,0.518,0.45,3,3,1,537,2
0.210417962431,0.00781256258492,1.04846450115,-0.0401061049769,0.57,0.45,2,2,1,538,2
0.654896071587,1.25804287342,-0.00744869496235,0.0588971697607,0.474,0.45,1,1,1,539,2
0.514431276088,0.0425007843897,-0.0126185342394,1.07502737531,0.5,0.45,3,3,1,540,2
1.00087863211,0.0424097163469,-0.0360794485684,-0.103954548895,0.403,0.45,0,0,2,541,2
0.364772812078,0.0138226334486,-0.03877543186,1.0275198046,0.455,0.45,3,3,1,542,2
0.150326550503,0.00678799965857,1.0171072175,0.0376196042549,0.472,0.45,2,2,1,543,2
1.03865654272,0.386434524451,-0.0155165099195,0.140499700765,0.575,0.45,0,0,1,544,2
0.429135129937,1.41649820598,-0.0145041518287,0.0446951347508,0.525,0.45,1,1,1,545,2
1.18113155775,0.0631612073127,-0.0085374668122,0.0464326248636,0.52,0.45,0,0,1,546,2
0.23471577401,0.0962619401396,1.02916288914,0.0818387992233,0.538,0.45,2,2,1,547,2
0.649397734017,1.02432601533,0.0235092859059,0.0848294256102,0.486,0.45,1,1,1,548,2
0.552365424446,0.143515702544,0.0235209237652,1.01883623133,0.441,0.45,3,3,2,549,2
1.01654557671,0.17996045703,0.0172667080603,-0.0504668611088,0.421,0.45,1,0,-1,550,2
0.152743772771,0.0983710960105,1.01503063775,-0.0299744428731,0.554,0.45,2,2,1,551,2
0.320307988763,0.0667892175804,0.113052906846,1.00551103674,0.483,0.45,3,3,1,552,2
1.14751623589,0.154611613665,0.0217352936126,-0.0419023612181,0.394,0.45,0,0,2,553,2
0.179120115926,0.0924923740033,0.0135234029779,1.05012639123,0.467,0.45,3,3,1,554,2
1.01777909478,0.229250889266,-0.0123651802642,-0.0831871586669,0.472,0.45,0,0,1,555,2
0.19197286456,0.0369250908003,1.07029972762,0.160189788758,0.556,0.45,2,2,1,556,2
0.552170165064,1.07601259998,-0.0208563496291,-0.00175566331181,0.465,0.45,1,1,1,557,2
0.173988505292,0.0206758743428,1.00006010972,0.125865558623,0.477,0.45,2,2,1,558,2
1.18410617909,0.0691668650651,-0.00769357938678,-0.022390544628,0.446,0.45,0,0,2,559,2
0.537897601409,0.251579208399,0.0260729425545,0.0932997888161,0.7,0.45,1,-1,0,561,2
0.518789471993,1.0684073755,0.0154048621058,0.0633567859222,0.0680000000003,0.45,3,1,-1,561,2
0.195243280009,0.0793771670436,1.00838239014,-0.015509244373,0.388,0.45,2,2,2,562,2
0.340887341002,0.0306090566268,0.0524934378945,1.0052271105,0.582,0.45,3,3,1,563,2
0.656431329884,1.01029575784,-0.0200343585408,-0.0106039391251,0.604,0.45,1,1,1,564,2
1.04415542331,0.0176255243586,-0.0225555317414,0.0861087834348,0.336,0.45,0,0,2,565,2
0.210791539609,0.015668206008,-0.0233650348583,1.04012149919,0.441,0.45,3,3,2,566,2
0.21924703081,0.015628875509,1.01734185951,-0.034052588395,0.515,0.45,2,2,1,567,2
0.455172429368,1.01013120965,0.000385308188062,-0.00115258549491,0.454,0.45,1,1,1,568,2
1.0323619199,0.135365135831,4.93551280958e-05,0.0259422011631,0.306,0.45,0,0,2,569,2
0.209369024966,0.0670376715886,1.07626875293,0.00113248845138,0.372,0.45,2,2,2,570,2
1.11857503917,0.0647092998077,0.0191973689162,-0.00933714768363,0.361,0.45,0,0,2,571,2
0.536329487014,1.00666313349,0.0605524128615,0.0157213910106,0.615,0.45,1,1,1,572,2
0.207525586554,0.0454322366022,1.00027710707,0.0293795187131,0.487,0.45,2,2,1,573,2
0.472690778573,0.0428942944789,0.104035132177,1.0543992295,0.387,0.45,3,3,2,574,2
1.01291700997,0.219723718109,0.0393816605164,-0.076911888597,0.37,0.45,1,0,-1,575,2
1.05645459584,0.0395359583843,0.00348208618946,0.0469546527613,0.25,0.45,3,0,-1,576,2
1.18284022941,0.055059902549,-0.00718711094429,-0.0781692090845,0.454,0.45,0,0,1,577,2
0.145343178353,0.0501699050879,0.0424728440903,1.02606141931,0.466,0.45,3,3,1,578,2
0.218235835332,0.0651011741421,0.216065984128,-0.0239748527072,0.7,0.45,2,-1,0,580,2
1.1464362954,0.06404051737,-0.017878912114,0.000332157600826,0.641,0.45,0,0,1,580,2
0.335956797552,1.05651204052,0.120034981336,0.113910128753,0.492,0.45,1,1,1,581,2
0.260666434219,0.0787336035828,1.02372417034,0.0947832259512,0.42,0.45,2,2,2,582,2
0.252132622385,1.10843972435,0.039225671908,-0.0654857750292,0.446,0.45,1,1,2,583,2
1.18194518772,0.136368939094,0.00811494043043,0.0217400212773,0.336,0.45,0,0,2,584,2
0.415710885182,0.210220122231,1.02104995178,0.0669701987206,0.416,0.45,2,2,2,585,2
0.619364097902,0.124669504092,0.0328450442297,1.02885393481,0.51,0.45,3,3,1,586,2
2.32949606329,0.114075046684,-0.00143012146892,-0.051321277367,0.473,0.45,0,0,1,587,2
0.329984281108,0.161396158968,0.0849934031687,0.0989890129299,0.7,0.45,3,-1,0,589,2
0.408044210895,0.156447981898,0.0811767710361,1.13920768107,0.222,0.45,1,3,-1,589,2
0.668690316204,0.20263685542,0.110946507586,0.000349761000247,0.7,0.45,3,-1,0,591,2
0.154065503687,0.113056591172,0.153052697147,0.018473022061,0.7,0.45,2,-1,0,592,2
0.164188750397,0.216965707165,0.132053142763,0.0293715371672,0.7,0.45,1,-1,0,593,2
0.166354459993,0.195230380834,0.128457047893,0.0958788805703,0.7,0.45,0,-1,0,594,2
0.161327728045,0.117676513022,1.07924496538,0.104931806781,0.441,0.45,2,2,2,594,2
1.30158581085,0.133278805318,0.0318053625837,0.0342008016594,0.469,0.45,0,0,1,595,2
0.543367374231,1.06458813357,0.0555935054214,0.0826868981256,0.406,0.45,1,1,2,596,2
0.209947541757,0.126695871926,1.00276165051,0.126681426757,0.364,0.45,2,2,2,597,2
0.30655028702,0.129119485993,0.0760521074109,1.00806513348,0.439,0.45,3,3,2,598,2
1.06013090989,0.147746410251,0.0332791236963,-0.0298468092336,0.432,0.45,0,0,2,599,2
0.409853103577,0.175147488063,0.0706935815701,1.43970714769,0.444,0.45,3,3,2,600,2
0.518240769556,1.06486331361,0.00592880080729,-0.0432729942293,0.561,0.45,1,1,1,601,2
0.449038470529,0.127812870269,0.000995899899731,1.27965381872,0.47,0.45,3,3,1,602,2
0.61156484613,1.01797873684,0.0660770052241,0.000235765772437,0.531,0.45,1,1,1,603,2
1.12671765597,0.181546314374,-0.000818790256966,0.0522784682042,0.345,0.45,0,0,2,604,2
0.3348744336,0.0739266302949,1.10112766253,0.0415268839045,0.519,0.45,2,2,1,605,2
1.60316468004,0.0392717443822,0.0088004031043,0.0600586288356,0.557,0.45,0,0,1,606,2
0.305621100167,1.01026192224,-0.00664958667914,-0.0295935865331,0.398,0.45,1,1,2,607,2
0.265048501071,0.299812591193,1.03942334894,0.243384452391,0.619,0.45,2,2,1,608,2
0.1294314857,0.72614824107,0.000777569953811,0.0700907959673,0.7,0.45,1,-1,0,610,2
0.12121185373,0.0237266564828,0.0840238896903,1.06113908173,0.668,0.45,3,3,1,610,2
1.08055719178,0.0446700647503,0.0184676038203,0.0110421860764,0.475,0.45,0,0,1,611,2
0.29897342624,0.116186978541,0.0140477822332,1.08197200268,0.531,0.45,3,3,1,612,2
0.37098609889,1.02393421912,0.0102024391659,-0.0690038173713,0.51,0.45,2,1,-1,613,2
0.300078504769,0.0189234835114,0.00802328575901,1.02375274411,0.59,0.45,3,3,1,614,2
0.213358494831,0.103621697368,0.276360797581,0.00546287030452,0.7,0.45,2,-1,0,616,2
0.305638804953,1.11157321418,0.00339282787733,-0.0281721833867,0.517,0.45,1,1,1,616,2
1.00479667703,0.131919366645,-0.0357456575618,0.0233416928163,0.345,0.45,0,0,2,617,2
0.26174013445,0.10356036277,1.05413681449,0.0241706372776,0.445,0.45,2,2,2,618,2
1.0611893708,0.063663860532,-0.0076713167185,-0.0549056251617,0.36,0.45,0,0,2,619,2
0.307271862246,1.05531570004,0.0638209303746,-0.0340952205998,0.446,0.45,1,1,2,620,2
0.156373722559,0.0535605774773,1.01675628766,0.142504803089,0.405,0.45,3,2,-1,621,2
1.09906921309,0.143642250106,-0.0093628635227,-0.0376662644368,0.526,0.45,0,0,1,622,2
0.278617511094,0.0176470898522,0.020447256875,1.05302065118,0.44,0.45,3,3,2,623,2
0.52526153363,1.05980091886,0.0184501141185,-0.00917067554449,0.405,0.45,1,1,2,624,2
0.376282756109,0.132180363083,0.282622340315,0.00845978634079,0.7,0.45,2,-1,0,626,2
0.389815891795,0.131257374032,0.0527769580542,1.00981463314,0.636,0.45,3,3,1,626,2
1.10931826198,0.108838305773,0.0343237079141,-0.0723096199445,0.473,0.45,0,0,1,627,2
0.436012321974,1.02577378874,0.080846916949,-0.0126888372824,0.396,0.45,1,1,2,628,2
0.291880121548,0.226625755791,1.01302502794,0.048204085285,0.388,0.45,2,2,2,629,2
1.13797919627,0.159596470938,0.0109240589287,-0.0557221469969,0.484,0.45,1,0,-1,630,2
1.18752804674,0.108833335701,0.0389173166262,0.0783459029146,0.469,0.45,0,0,1,631,2
0.230518886755,0.11633663396,1.02066239346,-0.0147433835967,0.434,0.45,2,2,2,632,2
1.59152356631,0.114634180007,0.0152751752072,-0.00545439742339,0.461,0.45,0,0,1,633,2
0.183980280792,0.0229718317637,0.21065933054,1.0587265504,0.499,0.45,3,3,1,634,2
0.335971285506,0.0963941441642,0.0729211518473,-0.0143013026837,0.7,0.45,2,-1,0,636,2
0.188790171371,0.0643944528583,1.01351719732,-0.0229185729171,0.285,0.45,3,2,-1,636,2
0.246013246999,1.04401919749,0.0904053134346,-0.0382342176499,0.502,0.45,1,1,1,637,2
0.148027864487,0.144362472384,0.0192296089686,1.10032546469,0.602,0.45,3,3,1,638,2
0.231199897296,0.128356793507,0.731717307654,-0.0203050376692,0.7,0.45,2,-1,0,640,2
1.09190113425,0.181116474133,-0.0115924785047,-0.0441932664053,0.544,0.45,0,0,1,640,2
0.417657530611,0.403641606951,0.0432558373604,-0.0121808621073,0.7,0.45,1,-1,0,642,2
0.414514697368,1.0937379006,0.0464472238863,-0.0232922456307,0.0940000000003,0.45,0,1,-1,642,2
0.250536016735,0.289918007374,0.130129593215,0.13487219692,0.7,0.45,2,-1,0,644,2
0.693998053954,0.440661488002,0.489809054915,0.320827442067,0.7,0.45,1,-1,0,645,2
0.298256874554,0.0851375864109,0.218662027545,0.130215295784,0.7,0.45,3,-1,0,646,2
0.0935505048505,0.246259090151,0.403204777898,0.307357312242,0.7,0.45,1,-1,0,647,2
0.333295283694,0.20157536181,1.09497192507,0.300429507674,0.543,0.45,2,2,1,647,2
0.405192024702,0.284561468539,0.142117612649,1.02084059764,0.537,0.45,3,3,1,648,2
1.03560795885,0.28715709213,0.105153741741,0.053159568455,0.526,0.45,0,0,1,649,2
0.444249038041,0.146863015364,0.302649273253,1.08524327961,0.484,0.45,3,3,1,650,2
1.04270248039,0.583650119794,0.539928246987,0.853838325566,0.00700000000035,0.45,2,0,-1,651,3
0.402796341001,0.353828357458,0.310969896904,0.226789491929,0.7,0.45,1,-1,0,653,3
0.606918851396,1.00353542603,0.323725048179,0.0709629868719,0.0550000000003,0.45,0,1,-1,653,3
0.540166919101,0.207162280781,0.175120778808,1.01866502596,0.522,0.45,3,3,1,654,3
1.03653059831,0.191823447433,0.0681241352068,0.108658738866,0.436,0.45,0,0,2,655,3
1.05652404687,0.204059329296,0.0895606947096,0.0881461655512,0.409,0.45,1,0,-1,656,3
0.35475044097,0.0825373071702,0.00101400790832,1.08222773108,0.458,0.45,3,3,1,657,3
0.564020418967,1.14708059881,0.056700316529,0.0256639068939,0.369,0.45,1,1,2,658,3
0.438929385583,0.106550838762,1.02593985975,0.0756659219442,0.447,0.45,2,2,2,659,3
1.01874635806,0.184084979901,0.0558372757683,-0.0330486166182,0.363,0.45,0,0,2,660,3
0.518318980835,0.245367650551,1.04126877755,-0.00287081247101,0.317,0.45,2,2,2,661,3
0.342533776035,0.0587151213412,0.220692746687,1.07122961298,0.483,0.45,3,3,1,662,3
0.320637763868,0.109551678913,1.07860257076,0.239590561738,0.534,0.45,2,2,1,663,3
0.520124702881,0.070740193247,0.0667615361852,1.08069358004,0.633,0.45,3,3,1,664,3
1.08056235079,0.0689276698752,0.0119668296286,-0.0393915272425,0.444,0.45,0,0,2,665,3
0.554402421762,1.01754078624,0.00151049717319,-0.0550275400345,0.372,0.45,1,1,2,666,3
1.03787792414,0.127450652408,0.0131841937248,-0.0206445946865,0.466,0.45,0,0,1,667,3
0.293713974583,0.0505542475027,0.190969987923,1.01485809593,0.587,0.45,3,3,1,668,3
0.55831026383,1.03546494999,-0.011399293849,0.0104767295768,0.451,0.45,1,1,1,669,3
0.43324576313,0.0220723631859,-0.0151249498403,1.05361982986,0.393,0.45,3,3,2,670,3
0.309895233568,0.0745030584075,1.11348316558,0.0679541332621,0.567,0.45,2,2,1,671,3
1.09601018399,0.0977311002593,-0.0210628810047,-0.0181947340564,0.424,0.45,1,0,-1,672,3
0.289563101519,0.0727250996111,1.01093670282,0.175776001482,0.519,0.45,2,2,1,673,3
1.04673720933,0.0969266688049,-0.0308071205187,-0.0482001880321,0.414,0.45,0,0,2,674,3
0.28716117759,0.132241293472,1.02765348879,0.0249952235554,0.495,0.45,2,2,1,675,3
0.722473920493,1.04114826307,0.025101297227,0.0131501273391,0.404,0.45,1,1,2,676,3
1.12138815836,0.0912700685515,0.0168692891627,0.0737669065907,0.331,0.45,0,0,2,677,3
0.452305342612,0.124174551655,0.0110827337323,1.01421757167,0.384,0.45,3,3,2,678,3
1.13490504697,0.120871313699,-0.00852275600346,-0.102953659469,0.321,0.45,0,0,2,679,3
0.758284242256,1.04456946262,-0.0150090513394,-0.0015928625248,0.396,0.45,1,1,2,680,3
0.189275141287,0.0528544686871,0.0979991306603,0.326189022896,0.7,0.45,3,-1,0,682,3
0.373474509775,0.0592112236333,0.0251124782638,1.13011413859,0.117,0.45,1,3,-1,682,3
0.210316338174,0.0180829172769,1.06536058655,0.0832383996272,0.579,0.45,2,2,1,683,3
1.13224434214,0.10464301334,-0.0150276498467,-0.0660112978699,0.499,0.45,0,0,1,684,3
0.318829295462,0.0971177824793,1.02133053317,-0.0263658330523,0.403,0.45,2,2,2,685,3
0.419407011474,0.0766789117432,-0.0130267646849,1.05144352056,0.448,0.45,3,3,2,686,3
1.06000250719,0.0943584905766,-0.00337465614399,-0.0122510876922,0.315,0.45,2,0,-1,687,3
0.297381268214,0.13175248057,0.0143207648843,0.0737775009129,0.7,0.45,3,-1,0,689,3
1.180062706,0.182729523915,0.0214298323357,0.0435348902075,0.476,0.45,0,0,1,689,3
0.351400990293,1.16565756643,0.129908045926,0.0128195390791,0.493,0.45,1,1,1,690,3
0.300131335244,0.158008566714,0.349785915472,1.06674243564,0.468,0.45,3,3,1,691,3
0.499425219314,1.03250839901,0.0056982278781,-0.0286817103281,0.628,0.45,1,1,1,692,3
1.07100552519,0.0915672349936,-0.0114226572831,0.0528526855281,0.368,0.45,0,0,2,693,3
0.397606974192,0.144849312083,-0.00595297682908,1.003218201,0.501,0.45,3,3,1,694,3
0.434534738453,0.146137594908,1.00793390962,0.0519438674387,0.585,0.45,2,2,1,695,3
0.567803245859,1.02944570403,0.0475149579067,-0.0160155340419,0.504,0.45,1,1,1,696,3
0.140939327408,0.0597608954353,1.01874679483,0.584821191569,0.553,0.45,2,2,1,697,3
1.1215877298,0.109345663165,0.10635918197,-0.0628227453118,0.491,0.45,0,0,1,698,3
0.350953348066,1.02996615157,0.486685362399,-0.0641687985636,0.47,0.45,2,1,-1,699,3
0.36557686219,1.05816633436,0.0433987193408,-0.0489312438355,0.515,0.45,0,1,-1,700,3
0.0362505480736,0.00358937593855,-0.00548884002282,-0.0599431080973,0.7,0.45,3,-1,0,702,3
0.28218077448,0.129679629426,0.267365646476,0.0160698804225,0.7,0.45,1,-1,0,703,3
0.428358165399,0.229934166053,0.492555103107,0.159314951622,0.7,0.45,0,-1,0,704,3
0.21125959416,0.347639159697,0.355446727526,0.500007776002,0.7,0.45,1,-1,0,705,3
0.294167969841,0.225604853775,0.335175407112,0.333788487407,0.7,0.45,3,-1,0,706,3
0.632239255732,0.213202264683,0.240986173357,0.205415158817,0.7,0.45,2,-1,0,707,3
0.639187472769,0.200366480532,0.312094765196,1.10095569165,0.541,0.45,3,3,1,707,3
1.04639381386,0.250878079543,0.0980109791394,0.0727278949061,0.437,0.45,0,0,2,708,3
0.370015081084,0.175422926861,1.14421541094,0.315644525633,0.407,0.45,2,2,2,709,3
0.505067000444,1.04707701921,0.0818580343176,0.120947187373,0.37,0.45,1,1,2,710,3
0.464335084312,0.115050126,1.07899103556,0.179893359489,0.39,0.45,2,2,2,711,3
0.455240233635,0.199351884563,0.17070387611,1.0618173968,0.485,0.45,3,3,1,712,3
1.0045435698,0.172595102961,0.0353778324001,0.0902566586619,0.462,0.45,0,0,1,713,3
0.449767134428,1.0326531741,0.0178175436908,0.048844964359,0.395,0.45,1,1,2,714,3
1.17025028125,0.180227396988,0.15823710943,0.174706025097,0.638,0.45,0,0,1,715,3
0.431378171518,0.151845805018,0.0747769609403,1.11149081462,0.536,0.45,3,3,1,716,3
0.619049416682,1.07065583593,0.0251160699545,-0.0316752855374,0.486,0.45,1,1,1,717,3
0.534042416545,0.11965912145,0.0202438169111,1.01786569892,0.492,0.45,3,3,1,718,3
0.473669877412,0.189017454717,1.01972751098,0.0809255639937,0.571,0.45,2,2,1,719,3
0.686681497852,1.07443005599,0.0707647235077,0.0680879969465,0.61,0.45,1,1,1,720,3
0.321564511269,0.0944251689247,1.03481044855,0.0501618549798,0.463,0.45,2,2,1,721,3
1.00378571994,0.120856062216,0.0188024158491,0.0191772639722,0.401,0.45,0,0,2,722,3
0.398335866028,0.0962056037036,1.12168205982,0.0454721032272,0.406,0.45,2,2,2,723,3
0.319306505251,0.0322586707679,0.29124749826,1.064214848,0.52,0.45,3,3,1,724,3
0.548089186915,1.02907364502,0.00656966567965,0.0456240440352,0.53,0.45,1,1,1,725,3
0.74288333603,0.202810532118,0.0962959362154,0.0400987992352,0.7,0.45,0,-1,0,727,3
1.04405082084,0.201879374152,0.091146232278,0.0456948114317,0.0440000000004,0.45,3,0,-1,727,3
1.05150285171,0.736284164209,0.0124938569596,-0.000778059422988,0.391,0.45,0,0,2,728,3
0.615449101067,1.0291222904,0.0126548575923,0.104416759395,0.434,0.45,1,1,2,729,3
0.379504726432,0.126369243024,1.06520781965,0.238548345429,0.519,0.45,2,2,1,730,3
1.06182744956,0.0610190025509,0.030044958185,-0.0205558049426,0.482,0.45,0,0,1,731,3
0.41200421525,0.094916315204,1.07329461623,0.0935577743907,0.398,0.45,2,2,2,732,3
1.02781871231,0.127883078381,0.130505940911,-0.0169582690221,0.361,0.45,1,0,-1,733,3
0.336880273227,0.0965601046877,0.137904836773,1.55152180465,0.584,0.45,3,3,1,734,3
0.308473056037,0.0412920057377,1.00702472914,-0.02177686117,0.547,0.45,2,2,1,735,3
0.474240071873,1.02126770414,0.000837240871493,-0.06109738242,0.521,0.45,1,1,1,736,3
1.17228529822,0.121742944596,0.0177707546999,-0.0282226081506,0.388,0.45,0,0,2,737,3
0.356939822202,0.15099652818,0.0161021973074,1.10799275542,0.386,0.45,3,3,2,738,3
1.12067988244,0.0913413225348,0.000526132480767,-0.0682612214893,0.362,0.45,0,0,2,739,3
0.497769131323,1.03484898444,-0.00688868150566,-0.0952343629726,0.357,0.45,1,1,2,740,3
0.254522949592,0.0626197820936,1.03900402342,0.140083896303,0.378,0.45,3,2,-1,741,3
0.321171370909,1.12262758202,0.000140788959455,-0.0272659878109,0.46,0.45,1,1,1,742,3
0.116703415161,0.00563442650111,1.12284923481,0.0136874698139,0.564,0.45,2,2,1,743,3
1.16025115481,-0.00685186302132,-0.0155478590921,-0.0207531946284,0.556,0.45,0,0,1,744,3
0.21922709709,0.0153103094375,1.11295662914,0.0450866306475,0.672,0.45,2,2,1,745,3
0.125062588205,-0.00416625776845,0.143988169055,1.43832714726,0.601,0.45,3,3,1,746,3
0.385119346873,-0.00281764003066,1.04202426599,-0.0350233993136,0.591,0.45,2,2,1,747,3
0.266223936848,0.0241899047385,0.0884801755658,1.23608966259,0.7,0.45,3,-1,0,749,3
0.266223936848,0.0241899047385,0.0884801755658,1.23608966259,0.0700000000004,0.45,1,3,-1,749,3
0.487477997203,0.0285775897746,0.00571196490607,-0.0571188055955,0.7,0.45,0,-1,0,751,3
1.1469169599,0.0344801228203,0.00347126068271,-0.0552970789798,0.0310000000004,0.45,1,0,-1,751,3
0.284391449118,0.42786754362,0.152641518848,0.222414069494,0.7,0.45,3,-1,0,753,3
0.303332311633,0.186621041042,0.0689924786862,-0.00788911624787,0.7,0.45,0,-1,0,754,3
0.328563046433,0.21533192046,0.0717425340158,0.0862735854613,0.7,0.45,2,-1,0,755,3
1.74789968661,0.327955473944,0.0965611816343,0.168701795765,0.474,0.45,0,0,1,755,3
0.131492120739,0.11461680215,1.02895960583,0.201269898665,0.491,0.45,3,2,-1,756,3
0.0376974397379,0.0314562525256,0.000538830969206,-0.0187022751819,0.7,0.45,2,-1,0,758,3
0.0170600664942,0.00987208299731,6.12837738473e-05,-0.0371087533686,0.7,0.45,1,-1,0,759,3
0.0157697514505,0.00802139858838,6.24706519914e-06,-0.0388639749335,0.7,0.45,2,-1,0,760,3
0.386831870942,0.358507058411,7.55753999937e-07,-0.0390384839022,0.7,0.45,0,-1,0,761,3
0.395489545187,0.166090610407,0.326087597846,0.0453389898355,0.7,0.45,3,-1,0,762,3
0.512870123596,0.20668645276,0.197198989102,0.155844452491,0.7,0.45,1,-1,0,763,3
1.69976277974,0.292830628558,0.243958068729,0.309078102696,0.526,0.45,0,0,1,763,3
0.511508734009,2.2103678345,0.174779112722,0.289207013901,0.526,0.45,1,1,1,764,3
0.265574697826,0.179493812869,0.373076051713,1.0545168796,0.594,0.45,3,3,1,765,3
1.10874197928,0.151320224855,0.0157179739796,0.0591490016679,0.499,0.45,0,0,1,766,3
0.331810511842,0.15404599094,1.07446434713,0.241253520709,0.46,0.45,2,2,1,767,3
0.3633826198,0.159559074114,0.266919740072,1.39835118238,0.457,0.45,3,3,1,768,3
0.465736393643,0.122739467582,1.08328065679,0.199037182404,0.549,0.45,2,2,1,769,3
0.571363111206,1.09911584416,0.0530484528693,-0.0041054477053,0.473,0.45,1,1,1,770,3
0.28417745933,0.119100005165,1.05241333319,0.118335006851,0.48,0.45,2,2,1,771,3
0.403800496504,0.0516887506206,0.255274832934,2.05403037739,0.553,0.45,3,3,1,772,3
1.0247805648,0.0468418596699,0.000595014380542,-0.0957796570664,0.426,0.45,1,0,-1,773,3
1.0672265773,0.0763959736224,0.013679308942,0.0314870839535,0.37,0.45,0,0,2,774,3
0.246818675534,0.15508367022,0.105815592468,1.07391595126,0.498,0.45,3,3,1,775,3
1.15939038215,0.08041459609,0.0104739343538,-0.0876973491742,0.499,0.45,0,0,1,776,3
0.670466711567,1.62545572154,0.0013469584586,-0.00818207063727,0.466,0.45,1,1,1,777,3
0.297410215296,0.121529104324,1.05024153162,0.0572445432206,0.406,0.45,2,2,2,778,3
1.15829524382,0.0470929754754,0.00175930681047,-0.0346270718006,0.491,0.45,0,0,1,779,3
0.252659844422,0.0711305028455,1.06216929567,-0.0176910442778,0.437,0.45,2,2,2,780,3
0.193623930685,1.86900449955,0.0241979998995,-0.065419507456,0.609,0.45,1,1,1,781,3
0.232085678452,0.0524126926603,0.0915891878414,1.11416881368,0.576,0.45,3,3,1,782,3
0.38539638648,1.13857796776,0.0628746592641,-0.0327743291781,0.556,0.45,2,1,-1,783,3
1.246013835,0.0733337846563,0.012286545284,-0.0298576784582,0.5,0.45,0,0,1,784,3
0.319710976903,0.0213761891871,9.51743257316e-05,1.01435022102,0.545,0.45,3,3,1,785,3
0.449865263896,1.10950321134,0.00448196672536,0.0010195719738,0.588,0.45,1,1,1,786,3
1.15502572423,0.141789196159,-0.00482927765477,0.139129982431,0.526,0.45,0,0,1,787,3
0.60188237675,1.60226777517,-0.00743418604794,-0.0558337032668,0.53,0.45,1,1,1,788,3
0.294571580015,0.0262250300863,0.106523051229,1.69906352249,0.643,0.45,3,3,1,789,3
1.06341260177,0.0914949948297,0.0249685887037,-0.0295611462142,0.509,0.45,0,0,1,790,3
0.220851637829,0.0458182283412,1.05587368672,-0.00365499422881,0.53,0.45,2,2,1,791,3
0.377414562764,0.00766608011195,0.0540614071634,1.60774291546,0.694,0.45,3,3,1,792,3
0.337090962826,0.0503001543497,0.958371434546,0.0156877160922,0.7,0.45,2,-1,0,794,3
0.211239296582,1.00870354775,-0.00440677859564,-0.0549058476654,0.575,0.45,1,1,1,794,3
0.350102103894,0.0653976304473,1.00669286781,0.0171737145933,0.679,0.45,2,2,1,795,3
0.438729081519,0.0264005818308,0.0987897822824,1.0089541716,0.609,0.45,3,3,1,796,3
1.1158851641,0.113845279762,0.0112980373458,-0.0483550380922,0.523,0.45,0,0,1,797,3
0.248847424626,1.03307502396,0.00319408513372,-0.0673516703113,0.468,0.45,1,1,1,798,3
0.196775003844,0.0363183312859,0.0556011670082,1.02813303454,0.451,0.45,3,3,1,799,3
0.192766375142,1.01172959555,0.00968875376119,0.00957033158079,0.524,0.45,1,1,1,800,3
1.89961750482,0.158012150345,-0.00545514135734,0.0757768085172,0.425,0.45,0,0,2,801,3
0.297648180069,0.0423228810855,1.00477514423,-0.0785474097294,0.501,0.45,2,2,1,802,3
1.12331246168,0.0582385701133,0.0224234004824,-0.0665652681971,0.383,0.45,0,0,2,803,3
0.330934068113,0.0256755068745,0.196684122483,1.34454178394,0.533,0.45,3,3,1,804,3
0.398465243485,0.0138234435677,1.01996258887,0.0681966609172,0.7,0.45,2,-1,0,806,3
0.398465243485,0.0138234435677,1.01996258887,0.0681966609172,0.00500000000042,0.45,1,2,-1,806,3
1.25183867278,0.00834832617656,-0.0311786318534,0.00468842013146,0.0800000000004,0.45,2,0,-1,807,3
1.12361396542,0.0192719039742,-0.00952806955413,-0.0444060793925,0.425,0.45,0,0,2,808,3
0.145305190189,0.0107207327278,0.165602658226,1.16700872642,0.505,0.45,3,3,1,809,3
0.593106262244,1.04912895221,0.0150568113013,-0.0584174632801,0.55,0.45,1,1,1,810,3
0.373849345891,0.0840670376924,0.00835385287251,0.000843390754725,0.7,0.45,0,-1,0,812,3
1.07803598749,0.0899976624597,0.00827749692025,0.00737648118623,0.0540000000004,0.45,1,0,-1,812,3
0.139947055813,0.0288291613172,0.00973895679044,0.138943324301,0.7,0.45,3,-1,0,814,3
0.201882742827,0.0900285433464,0.0080422885049,-0.0499540755864,0.7,0.45,2,-1,0,815,3
0.20290862824,0.103225618619,0.0102423731311,-0.0306603014898,0.7,0.45,3,-1,0,816,3
1.13181848211,0.197094392687,0.060182254882,0.0581665561527,0.393,0.45,0,0,2,816,3
0.286251281104,0.177638642012,1.05324649845,0.141585235529,0.519,0.45,2,2,1,817,3
0.358208587203,1.07923387982,0.00865153712836,-0.0549300809373,0.491,0.45,1,1,1,818,3
0.177228198853,0.106852042268,1.04253700157,-0.00212827605355,0.451,0.45,2,2,1,819,3
1.02965463146,0.0779283970133,-0.00293369311123,-0.0574181404612,0.488,0.45,0,0,1,820,3
0.350788047419,1.26612989523,0.00239722449465,-0.0402663740339,0.643,0.45,1,1,1,821,3
0.212317961411,0.0467320371831,0.0969906457343,1.08432257546,0.621,0.45,3,3,1,822,3
1.022696832,0.18172765798,0.0100334269023,-0.0737569632089,0.533,0.45,0,0,1,823,3
0.249958243274,0.0274528238776,0.0112652315017,1.19815484371,0.591,0.45,3,3,1,824,3
0.571661772,1.06991165072,0.00409052948705,-0.108429909978,0.529,0.45,1,1,1,825,3
1.0710025612,0.167396267455,0.00073278796516,-0.00935635841908,0.391,0.45,0,0,2,826,3
0.33064709069,0.0598842283846,1.02880653273,-0.0214381763096,0.583,0.45,2,2,1,827,3
0.472177675248,1.65309104778,0.0172908239218,-0.014613586829,0.504,0.45,1,1,1,828,3
0.149876633538,0.0485146595004,1.04220756396,-0.0371116752796,0.466,0.45,2,2,1,829,3
0.563642617962,0.0367279080137,0.0420277727146,1.01181151832,0.475,0.45,3,3,1,830,3
1.01731189178,0.0408563847175,0.00462317742808,-0.0968294307738,0.234,0.45,2,0,-1,831,3
0.379696788896,0.0875257522823,-0.00749405765755,-0.0681688835887,0.7,0.45,1,-1,0,833,3
1.78632979342,0.140561277964,-0.00769161462659,0.0422414260249,0.326,0.45,0,0,2,833,3
0.204959699483,0.0958494194569,0.0394687415985,1.00183223019,0.507,0.45,3,3,1,834,3
0.497457723419,1.02962837883,0.00699527010941,-0.0478287389722,0.399,0.45,1,1,2,835,3
0.230404501527,0.116001779828,0.0427389755819,1.03112226759,0.529,0.45,3,3,1,836,3
1.04285915404,0.106462567315,0.00680600509057,-0.0546768061406,0.49,0.45,0,0,1,837,3
0.231822274419,0.043511621089,1.07693860666,0.0157714193704,0.534,0.45,2,2,1,838,3
1.0001792267,0.0190027308369,0.0495469409961,-0.0325556817601,0.449,0.45,0,0,2,839,3
0.307420940986,1.35985968412,-0.00435833777651,-0.03615395102,0.678,0.45,1,1,1,840,3
0.180807448606,0.028094094375,1.00676359808,-0.0252098635643,0.516,0.45,2,2,1,841,3
0.414250363437,-0.00230844380878,0.138162063843,1.12360385291,0.563,0.45,3,3,1,842,3
0.305180794295,-0.00740145858659,0.549579647093,-0.0481345390433,0.7,0.45,2,-1,0,844,3
0.283606764859,-0.00745838259708,1.06701421804,0.0295977073395,0.0510000000004,0.45,3,2,-1,844,3
1.08362955558,0.0166992946167,0.017311221008,-0.0668404700742,0.407,0.45,1,0,-1,845,3
1.07831800205,0.102874788061,0.0199667106989,-0.0565322709862,0.49,0.45,0,0,1,846,3
0.226038966585,0.0721522088264,0.383024027485,0.00623955974068,0.7,0.45,1,-1,0,848,3
0.259518722784,0.138115117682,0.025836104451,-0.0122664233573,0.7,0.45,3,-1,0,849,3
0.200810471397,0.219960964327,0.0114896100184,-0.108433056043,0.7,0.45,0,-1,0,850,3
0.539566680429,0.176226778034,0.207806201737,0.249058410937,0.7,0.45,2,-1,0,851,3
0.386855162589,0.334957447842,0.224241057529,0.391114038196,0.7,0.45,0,-1,0,852,3
0.342988136395,0.184825109313,0.208812012944,0.359339753309,0.7,0.45,3,-1,0,853,3
0.472771821694,0.189030655696,0.113999404157,0.12856745777,0.7,0.45,2,-1,0,854,3
0.407237256676,0.168479406799,0.134177879771,0.140925049782,0.7,0.45,1,-1,0,855,3
0.581600192303,0.214211854162,0.116619331558,0.0972133945196,0.7,0.45,2,-1,0,856,3
1.07271734443,0.265636688091,0.111529254517,0.12512808752,0.381,0.45,0,0,2,856,3
0.105347322764,1.03278687005,0.0981792877799,0.147406946106,0.578,0.45,1,1,1,857,3
0.147362784418,0.157456427395,0.111498848196,1.00320719013,0.615,0.45,3,3,1,858,3
0.519969152178,1.20845442935,0.0385046099926,0.0163800383857,0.589,0.45,1,1,1,859,3
1.03606494206,0.185111916415,0.00517256558679,0.0603047254793,0.396,0.45,0,0,2,860,3
0.545153067503,0.110608283115,0.00048322970397,1.11836141296,0.453,0.45,3,3,1,861,3
0.766352582889,1.14804336481,0.0433925632638,-0.0471090061208,0.619,0.45,0,1,-1,862,3
0.399050039275,0.0722962355535,1.02853007252,0.141660295851,0.646,0.45,2,2,1,863,3
0.324233913592,0.0647265208308,0.0969405267218,1.02099239296,0.528,0.45,3,3,1,864,3
0.27841979122,0.0634439650259,1.02924386438,0.0317570920237,0.503,0.45,2,2,1,865,3
0.417650087552,1.06878957049,0.0471125917133,0.00189008894548,0.442,0.45,1,1,2,866,3
0.150778430612,0.0652994970487,1.05402001368,0.120492427144,0.525,0.45,2,2,1,867,3
1.39475767229,0.726437206396,0.897959276499,1.50027960644,0.00700000000045,0.45,1,3,-1,868,4
0.774789716325,0.147940624655,0.332008787904,1.0150017512,0.535,0.45,3,3,1,869,4
0.619284575488,0.158139684576,1.02202741535,0.175590963525,0.557,0.45,2,2,1,870,4
1.14565299034,0.755600349269,0.126877892417,0.0671802858381,0.432,0.45,0,0,2,871,4
0.579956635944,0.102647472485,0.162204004897,1.04341146469,0.515,0.45,3,3,1,872,4
1.07396487501,0.109281907202,0.0439278100382,-0.0275317721397,0.427,0.45,0,0,2,873,4
0.512187135689,0.108972736601,1.03557195296,0.00314466802849,0.338,0.45,2,2,2,874,4
0.561027462527,0.0818351359617,0.0361834088867,1.02737031378,0.396,0.45,3,3,2,875,4
0.939352135838,1.01192368192,0.0558404450186,0.0673463287383,0.39,0.45,1,1,2,876,4
1.05512650534,0.207567759096,0.00660763615564,0.0523567744283,0.353,0.45,0,0,2,877,4
1.11805909622,0.176738141596,0.0958227221257,-0.0305827856603,0.412,0.45,1,0,-1,878,4
0.502702110056,0.158927271317,1.09568984995,0.160662283286,0.461,0.45,2,2,1,879,4
0.680433099031,1.047401708,0.114650972176,-0.042477501203,0.564,0.45,1,1,1,880,4
0.628837485743,0.104602809671,0.184252912723,1.09078572526,0.487,0.45,3,3,1,881,4
0.626154884773,0.0663414703872,1.00433040853,-0.0375139996844,0.458,0.45,2,2,1,882,4
1.08304097448,0.143599271721,0.0393791419647,-0.048512263984,0.38,0.45,0,0,2,883,4
0.65527712973,0.0686995773853,0.067892801402,1.08471445088,0.447,0.45,3,3,2,884,4
1.00842382354,0.214801129597,0.0207427234453,-0.0387772032326,0.379,0.45,0,0,2,885,4
0.657481152441,0.135613006508,1.05100223372,0.0613951981647,0.397,0.45,2,2,2,886,4
0.625730889658,0.0939366952765,0.0370672120303,1.09204222786,0.422,0.45,3,3,2,887,4
1.01738785343,0.182720864845,0.00467245179738,0.0120198756204,0.385,0.45,1,0,-1,888,4
1.1927165459,0.142739902544,-0.00638864594943,-0.0621633260423,0.418,0.45,0,0,2,889,4
0.919599631165,1.20994683993,-0.00768083009236,-0.0317720675225,0.485,0.45,1,1,1,890,4
0.536057401803,0.151621290204,1.0258920871,0.0950540582327,0.553,0.45,2,2,1,891,4
0.610860611074,1.02072263085,0.0729755626772,0.00950919126591,0.595,0.45,1,1,1,892,4
0.506593957838,0.110905358474,0.0777097090341,1.05631216506,0.535,0.45,3,3,1,893,4
1.16473448271,0.379598078201,0.00213814701257,0.000324270998362,0.51,0.45,0,0,1,894,4
0.548119368481,0.165400308543,1.05326104895,0.00602458232523,0.419,0.45,2,2,2,895,4
0.564306404377,0.131967315427,0.0720620965073,1.06372119106,0.518,0.45,3,3,1,896,4
0.807021994176,0.124657137256,1.01746194278,0.00557331955878,0.615,0.45,2,2,1,897,4
1.34212314224,0.418713132884,0.0186778307585,0.0267057656728,0.419,0.45,0,0,2,898,4
0.567697053627,0.0625517212608,0.245044775623,1.59431816642,0.554,0.45,3,3,1,899,4
0.502740604963,0.0466703797529,1.00310254518,0.0392063160645,0.508,0.45,1,2,-1,900,4
1.01901501382,0.20502626928,-0.00653254017797,0.0767170974233,0.503,0.45,0,0,1,901,4
0.692243398053,1.06893578317,0.0410992175898,0.102076462645,0.605,0.45,1,1,1,902,4
0.536064655096,0.0697117201235,1.08502082433,0.033284162974,0.584,0.45,2,2,1,903,4
0.616366417234,1.05807293023,0.00653668082804,0.0335847269345,0.68,0.45,1,1,1,904,4
1.06782025819,0.173990940157,0.0182522856277,-0.0561996014164,0.546,0.45,0,0,1,905,4
0.66632359357,0.193123571504,1.01718051,-0.00946039079705,0.608,0.45,2,2,1,906,4
0.622525117777,0.0906749420001,0.0531941877382,1.01076538417,0.497,0.45,3,3,1,907,4
1.16039860759,0.169107680406,0.00469119371379,-0.0324254241001,0.417,0.45,0,0,2,908,4
0.500418254462,0.168207873941,0.0281809777282,1.02759655396,0.523,0.45,3,3,1,909,4
0.669925321578,0.0793398202375,1.04878216083,-0.0278122333436,0.564,0.45,2,2,1,910,4
1.31551243142,0.122013600799,0.0656752908936,-0.0467603068912,0.634,0.45,0,0,1,911,4
0.67654024415,1.03857948328,0.0527507980697,0.0156639129913,0.472,0.45,1,1,1,912,4
0.394657913742,0.0862114729398,0.138685669554,1.03806350053,0.592,0.45,3,3,1,913,4
0.719346843125,1.08425583546,0.0153324008666,-0.0407394004583,0.501,0.45,1,1,1,914,4
0.430098649829,0.0340468157003,1.01818524229,0.116370762841,0.598,0.45,2,2,1,915,4
1.00045524429,0.17195333568,0.105827351224,0.0318133118225,0.441,0.45,1,0,-1,916,4
0.384869109434,0.047494999969,1.07606191728,0.0470540618066,0.681,0.45,2,2,1,917,4
1.0117070517,0.0966545447277,0.00211938277461,0.0462270626072,0.462,0.45,0,0,1,918,4
0.52332428567,0.0725100844105,0.0849472204764,1.04643911252,0.502,0.45,3,3,1,919,4
1.05909576085,0.175228050949,0.00138782091725,-0.0555109156759,0.437,0.45,0,0,2,920,4
0.459971823363,0.102696058454,1.0673142746,0.0365167055861,0.445,0.45,2,2,2,921,4
0.559265496549,0.0314514185428,0.0160486850881,1.07620588002,0.45,0.45,3,3,1,922,4
0.765694199187,0.2766520794,0.0430430690181,-0.0401558766225,0.7,0.45,1,-1,0,924,4
0.541133464329,0.10465162982,0.102552291632,1.03486700555,0.69,0.45,3,3,1,924,4
0.713965053999,0.311876356462,1.08284011401,-0.000902162395469,0.63,0.45,2,2,1,925,4
0.72965552693,1.06281665043,-0.00690670829839,0.0239486556663,0.549,0.45,1,1,1,926,4
1.02522819059,0.118945643922,-0.00773100917607,0.0352945702492,0.343,0.45,0,0,2,927,4
1.09163310256,0.222026073767,-0.00780468652345,-0.0400220868239,0.384,0.45,1,0,-1,928,4
1.14499064601,0.245097412398,-0.00781210576641,-0.057754389948,0.646,0.45,0,0,1,929,4
0.491768495211,0.0545306357085,0.0184805835412,1.06586795423,0.633,0.45,3,3,1,930,4
0.766477747183,0.112262528506,1.04470152839,-0.0465627328141,0.58,0.45,2,2,1,931,4
0.654888340871,0.139946408845,0.036794903252,-0.0518289590844,0.7,0.45,0,-1,0,933,4
0.431102385348,0.0826602026022,0.0151041113146,-0.0670658151487,0.7,0.45,2,-1,0,934,4
0.365635400856,0.167381274191,0.093649716825,0.0312953966906,0.7,0.45,3,-1,0,935,4
0.760293075295,0.156012009711,0.303124809494,0.215891381787,0.7,0.45,0,-1,0,936,4
1.0085738845,0.0910615287947,0.101631291548,0.00379419490239,0.179,0.45,1,0,-1,936,4
0.674132698802,0.0908802236316,0.00269229261605,-0.0536448602859,0.7,0.45,3,-1,0,938,4
0.765043939787,0.136814837986,0.138562820803,0.122105192999,0.7,0.45,1,-1,0,939,4
0.690837015172,0.227790341919,0.189916297375,0.235804024057,0.7,0.45,2,-1,0,940,4
0.816604047897,0.135499681855,0.168791035952,0.143421084711,0.7,0.45,1,-1,0,941,4
0.835540887623,0.18724978349,0.102644279027,0.0634135005175,0.7,0.45,3,-1,0,942,4
1.01165055054,0.146992581617,0.0635055699382,-0.00824183673254,0.403,0.45,2,0,-1,942,4
1.11302918147,0.175020237417,0.132686174926,0.178947055038,0.594,0.45,0,0,1,943,4
0.665927964335,0.51796705616,1.0024447715,0.269580340048,0.563,0.45,2,2,1,944,4
0.593042777123,0.206938135967,0.125897610187,1.11793991686,0.57,0.45,3,3,1,945,4
1.04757292246,0.211701173685,0.0765559995197,0.0249080120599,0.487,0.45,0,0,1,946,4
0.808561520636,1.00539015423,0.0414038565266,0.0775840987425,0.442,0.45,1,1,2,947,4
0.524141652956,0.169323741989,1.05293278586,0.0978496533021,0.368,0.45,2,2,2,948,4
1.01355689888,0.167400935947,0.0465672739244,0.0873557021823,0.307,0.45,1,0,-1,949,4
1.03820368203,0.144123732704,0.0420041839918,0.041637414584,0.244,0.45,0,0,2,950,4
0.484461016179,0.0999897158659,1.0258692061,0.111011717256,0.35,0.45,3,2,-1,951,4
0.794839561863,1.06948090703,0.0135789794626,-0.0411548951341,0.312,0.45,1,1,2,952,4
1.11505440519,0.146138047222,0.00815508234106,0.0253678000883,0.369,0.45,0,0,2,953,4
0.733247852262,0.185973777533,1.08853743668,0.0187050209164,0.383,0.45,2,2,2,954,4
0.392939373324,0.0735623411133,0.286292378811,1.06307905883,0.439,0.45,3,3,2,955,4
0.370752213591,0.118141418228,1.03361860925,0.155554661058,0.576,0.45,2,2,1,956,4
1.0071984457,0.0468386820014,0.0777389816595,0.0305978003819,0.419,0.45,0,0,2,957,4
0.507322940849,0.0497394552099,0.0329504273865,1.07740598968,0.466,0.45,3,3,1,958,4
1.01827258095,0.603254678304,0.00634142829293,-0.0567981830555,0.377,0.45,1,0,-1,959,4
0.331221710603,0.126289948113,0.000629642138898,1.08006127469,0.411,0.45,3,3,2,960,4
1.04047827262,0.202917979252,6.56659445601e-05,-0.0906245048803,0.439,0.45,0,0,2,961,4
0.897655978748,1.06135789787,0.0168281216422,-0.0273048169301,0.565,0.45,1,1,1,962,4
0.418012975314,0.059506934818,1.05086950497,0.0611175510194,0.426,0.45,2,2,2,963,4
0.494491555796,1.23291510527,0.0857221042395,0.0132628892868,0.550000000001,0.45,1,1,1,964,4
0.358913955426,0.11607659482,0.130224010332,1.00848052078,0.476000000001,0.45,3,3,1,965,4
1.00905984082,0.225662423219,0.00590425399086,-0.0729190368807,0.451000000001,0.45,0,0,1,966,4
0.518190955584,0.157657595843,1.11969835126,-0.0400470832123,0.364000000001,0.45,2,2,2,967,4
0.399195573799,0.0962735160919,0.114420344768,1.04183279558,0.360000000001,0.45,3,3,2,968,4
1.11032507331,0.114658043128,0.00600705267751,-0.00784919570732,0.268000000001,0.45,2,0,-1,969,4
1.08485708802,0.177113810263,0.0394874178211,0.0484442475035,0.309000000001,0.45,0,0,2,970,4
0.481804122751,0.0699458704373,0.16018973526,1.05341810292,0.465000000001,0.45,3,3,1,971,4
0.967612835394,1.12817601081,0.00861911882259,-0.00760189828558,0.404000000001,0.45,1,1,2,972,4
0.484542051137,0.0366900384103,0.544264960618,0.0753372556901,0.7,0.45,2,-1,0,974,4
0.623235775114,0.0085034902249,1.07194886111,0.0822408591684,0.113000000001,0.45,1,2,-1,974,4
1.11656899428,0.41510456864,0.0618872518993,0.00380541733226,0.624000000001,0.45,0,0,1,975,4
0.487465758022,1.075737902,0.116862639584,0.0578677551455,0.504000000001,0.45,1,1,1,976,4
0.294020607056,0.120546325667,1.04650470124,0.0454742663638,0.454000000001,0.45,2,2,1,977,4
0.414765065512,0.100829565781,0.138233916604,1.03037422916,0.367000000001,0.45,3,3,2,978,4
1.03303320988,0.140034732785,0.0195905528965,-0.0194297557342,0.393000000001,0.45,0,0,2,979,4
0.346364632347,0.0784905770094,0.167617074279,1.04882414487,0.436000000001,0.45,3,3,2,980,4
0.457735097271,0.0890374128983,1.00555193176,0.0739467447055,0.447000000001,0.45,2,2,2,981,4
0.535705827686,1.03383509263,0.0575749409346,0.106847029692,0.374000000001,0.45,0,1,-1,982,4
0.272669028834,0.0553949117268,1.01600102017,0.263706209984,0.430000000001,0.45,2,2,2,983,4
1.08626930242,0.0835925679912,0.0551986867793,0.0738634352594,0.355000000001,0.45,1,0,-1,984,4
1.09986637658,0.23485347022,0.0362887133036,-0.000232285258015,0.385000000001,0.45,0,0,2,985,4
1.0624708485,0.214095109239,0.0391915880682,-0.0145752363583,0.472000000001,0.45,1,0,-1,986,4
0.261274772718,0.103837252805,0.299938007409,1.02823140284,0.522000000001,0.45,3,3,1,987,4
0.558380016391,1.04720319124,0.0197755954891,0.0583062010945,0.618000000001,0.45,1,1,1,988,4
1.03470345297,0.110826625803,0.0165659180964,0.074590878897,0.385000000001,0.45,0,0,2,989,4
0.358978797534,0.102459202314,1.04075091782,-0.00810032209944,0.395000000001,0.45,2,2,2,990,4
0.308533022487,0.0509474398512,0.154768951355,1.13052887713,0.391000000001,0.45,3,3,2,991,4
0.335343037723,0.131732764589,1.08185512474,-0.0484351662719,0.489000000001,0.45,2,2,1,992,4
0.666137271657,1.05770173615,-0.00744921125096,0.0293835201368,0.403000000001,0.45,0,1,-1,993,4
0.231318824608,0.0221096904869,0.29374963549,1.00134060384,0.464000000001,0.45,3,3,1,994,4
1.09275215388,0.0712548371587,0.0255083571442,-0.102353343563,0.449000000001,0.45,0,0,2,995,4
0.509257203431,1.10684058527,0.0245525712994,0.0573840382696,0.437000000001,0.45,1,1,2,996,4
0.182272490987,0.0224388249793,0.115608978651,1.01587281977,0.457000000001,0.45,3,3,1,997,4
0.649896915459,1.12309490813,0.0227584429543,0.0520492995216,0.473000000001,0.45,1,1,1,998,4
0.277155660817,0.0266570603499,1.03244318016,0.0152671752873,0.453000000001,0.45,2,2,1,999,4
0.600812462794,0.76246869961,0.039116009362,0.103062220752,0.7,0.45,1,-1,0,1001,4
1.05481601842,0.24376926578,0.0106762322508,0.00189761180516,0.441000000001,0.45,0,0,2,1001,4
0.308113026009,0.0804046905681,0.00815433355627,1.04110876503,0.402000000001,0.45,3,3,2,1002,4
0.352075634459,0.156076509156,1.02886129529,0.0239103286939,0.559000000001,0.45,2,2,1,1003,4
0.345224615855,0.068520756227,0.00824520989952,1.11680787114,0.508000000001,0.45,3,3,1,1004,4
1.04436374541,0.174170379586,0.021653683638,-0.0900912791428,0.466000000001,0.45,0,0,1,1005,4
0.410951156492,0.156173274185,1.06714449924,0.0644569874528,0.441000000001,0.45,2,2,2,1006,4
1.04365944386,0.145863382176,0.0237212581044,0.00680081094657,0.438000000001,0.45,0,0,2,1007,4
0.549381078214,1.16525597418,0.0304220796427,-0.0454796973517,0.470000000001,0.45,1,1,1,1008,4
0.243422606205,0.0806265384631,1.06649925531,-0.0481589191707,0.392000000001,0.45,2,2,2,1009,4
0.245153074983,1.06880735247,0.0511182415154,-0.0128821268045,0.622000000001,0.45,1,1,1,1010,4
0.2714759277,0.117876292675,0.0683043258377,1.01447544595,0.639000000001,0.45,3,3,1,1011,4
0.3871186053,1.08259139599,0.0492943619326,-0.0665985125622,0.564000000001,0.45,1,1,1,1012,4
1.01096706248,0.132543299861,0.045871591591,-0.0881938644066,0.210000000001,0.45,0,0,2,1013,4
0.302817340394,0.0623799133786,1.03880376941,-0.0649414294792,0.535000000001,0.45,2,2,1,1014,4
0.577730267962,0.096438706952,0.0232678895844,-0.0165430980058,0.7,0.45,3,-1,0,1016,4
0.543577916778,0.0774784175938,0.0206339675038,1.01065743926,0.0980000000005,0.45,0,3,-1,1016,4
0.370269670209,0.0407627299565,0.386901374815,1.12212787915,0.493000000001,0.45,3,3,1,1017,4
0.621540934529,1.02061554185,0.00407842424745,-0.0222884593053,0.549000000001,0.45,2,1,-1,1018,4
0.630972897793,1.13912551699,0.000626912953969,0.00607388745704,0.435000000001,0.45,1,1,2,1019,4
1.04591436935,0.137807366381,0.000125748264481,0.060821486333,0.252000000001,0.45,3,0,-1,1020,4
0.477157447728,1.07591334788,0.0964416117574,-0.0414716354225,0.592000000001,0.45,1,1,1,1021,4
0.247014425979,0.0557766360383,1.04381123537,0.00411353747089,0.510000000001,0.45,2,2,1,1022,4
1.06685171865,0.269218824794,0.0111373388819,-0.0502020269933,0.516000000001,0.45,0,0,1,1023,4
0.393656336471,1.02835702956,0.0598163844746,-0.0529468130399,0.525000000001,0.45,1,1,1,1024,4
0.317151302822,0.0787124197778,1.05878326122,0.0487602598705,0.389000000001,0.45,2,2,2,1025,4
0.433892871405,0.059327414713,0.139294596018,1.10963525015,0.397000000001,0.45,3,3,2,1026,4
1.07876278777,0.137419248995,-0.00324439321974,-0.0928552704118,0.374000000001,0.45,0,0,2,1027,4
0.350887446886,0.167304147269,0.00241800321709,1.07834656961,0.541000000001,0.45,3,3,1,1028,4
0.486405089345,1.04054892125,0.00248918792969,-0.0255253440261,0.483000000001,0.45,2,1,-1,1029,4
0.652352650932,1.01989427229,0.00745696304208,0.0360282516179,0.386000000001,0.45,0,1,-1,1030,4
0.501921493032,1.1164511021,-0.00645847618472,0.103918884815,0.417000000001,0.45,1,1,2,1031,4
1.02589304209,0.149167410049,-0.00431838768409,-0.013351282397,0.626000000001,0.45,0,0,1,1032,4
0.339612133305,0.142495043096,1.01867811955,0.150333687456,0.492000000001,0.45,2,2,1,1033,4
0.624578210578,1.01914568994,-0.0230606836823,-0.0232865481956,0.494000000001,0.45,1,1,1,1034,4
0.534327728854,0.15130280468,-0.0116180987203,1.13376363274,0.592000000001,0.45,3,3,1,1035,4
0.498937402844,1.14917234032,0.00785897207872,-0.0960555152192,0.505000000001,0.45,1,1,1,1036,4
0.366921087148,0.0422571826388,0.000760652422989,1.06390695842,0.547000000001,0.45,3,3,1,1037,4
0.408708074315,0.159338043995,1.03311423653,0.000985616180986,0.564000000001,0.45,2,2,1,1038,4
1.0019548838,0.337600498195,0.0328338850443,0.0223238170393,0.509000000001,0.45,0,0,1,1039,4
0.256357711351,0.128734248094,1.10660085411,-0.0366612379755,0.441000000001,0.45,2,2,2,1040,4
0.417521304653,0.0459521238321,0.094847079906,1.00219279286,0.488000000001,0.45,3,3,1,1041,4
1.0810219401,0.102612271547,0.0163484023724,-0.119105072316,0.377000000001,0.45,0,0,2,1042,4
0.62700824843,1.04153037127,0.021080797568,0.0216539099107,0.412000000001,0.45,1,1,2,1043,4
0.446621049355,0.154272742019,1.02254673791,0.093177901311,0.394000000001,0.45,2,2,2,1044,4
1.09555169375,0.145764451381,0.0856701341837,-0.018906049469,0.353000000001,0.45,1,0,-1,1045,4
1.05922928395,0.159476292631,0.0324719498988,0.0495397909492,0.379000000001,0.45,0,0,2,1046,4
0.417922302554,0.0812390955415,0.00958102946078,1.13680144455,0.405000000001,0.45,3,3,2,1047,4
0.615763677214,1.07364011132,0.00530984853951,-0.0258884655398,0.397000000001,0.45,1,1,2,1048,4
0.528406240476,0.165782467536,0.178700767395,1.14181354776,0.441000000001,0.45,2,3,-1,1049,4
1.03096904061,0.158989908601,0.110936249342,-0.0426299372713,0.537000000001,0.45,0,0,1,1050,4
0.354081726546,0.125003021488,0.0764453981607,1.11080937032,0.541000000001,0.45,3,3,1,1051,4
0.50022272443,0.155970593479,1.03375574036,-0.027486165047,0.593000000001,0.45,2,2,1,1052,4
0.534986845529,0.160610955717,0.09830148759,1.04148317843,0.511000000001,0.45,3,3,1,1053,4
1.09265315806,0.154407715572,0.000783805575796,-0.0343063092075,0.384000000001,0.45,0,0,2,1054,4
0.555503255057,1.03394705731,0.0354775768873,-0.0477993747129,0.435000000001,0.45,1,1,2,1055,4
1.00335407768,0.138776210227,0.0414334530544,-0.00424210219428,0.489000000001,0.45,0,0,1,1056,4
0.401885270465,0.0943477500818,1.04940356253,0.0956956362761,0.481000000001,0.45,2,2,1,1057,4
0.532785532486,1.15570146579,0.000860781298025,-0.00523224879672,0.454000000001,0.45,1,1,1,1058,4
0.43461293868,0.0508301681741,0.00614099488808,1.13850612243,0.468000000001,0.45,3,3,1,1059,4
0.420408467601,0.823583593937,0.0136230613895,0.0308545198465,0.7,0.45,1,-1,0,1061,4
0.42280094293,1.05390807923,0.0121117016836,0.0401677993331,0.0170000000006,0.45,2,1,-1,1061,4
0.541741973846,0.264340343946,0.0266725469421,-0.00864033939404,0.7,0.45,3,-1,0,1063,4
1.11173922315,0.271754043238,0.0356819439648,-0.0225220998486,0.411000000001,0.45,0,0,2,1063,4
0.239830969177,0.117746912404,0.1066906554,0.20375273451,0.7,0.45,3,-1,0,1065,4
0.392631983962,1.11504493518,0.027098517172,0.0204587564875,0.440000000001,0.45,2,1,-1,1065,4
1.02580979306,0.882831512934,-0.00397017824168,0.0249681988266,0.449000000001,0.45,0,0,2,1066,4
0.322499109656,0.059285037337,1.04846918386,0.0467783950781,0.436000000001,0.45,2,2,2,1067,4
0.556820699532,1.14100905743,0.00719022945641,-0.0329146644938,0.448000000001,0.45,1,1,2,1068,4
1.12679982749,0.144982516385,-0.0135642129453,0.0188780575886,0.248000000001,0.45,0,0,2,1069,4
0.346143113902,1.0401378553,0.0307258569531,-0.0271158210652,0.486000000001,0.45,1,1,1,1070,4
0.319531927072,0.143378236341,-0.0216065726201,-0.0156664697569,0.7,0.45,3,-1,0,1072,4
0.282585419071,0.203926806952,-0.0232311741153,0.0235020601243,0.7,0.45,1,-1,0,1073,4
0.336898415715,0.253710184373,-0.0234139578462,0.00920712663642,0.7,0.45,2,-1,0,1074,4
0.147784668807,-0.00203021443463,-0.0234348148302,-0.0467320762347,0.7,0.45,3,-1,0,1075,4
0.151600882515,-0.00591133353034,-0.011461071356,-0.0487380731644,0.7,0.45,0,-1,0,1076,4
0.148786103546,-0.00760131042857,-0.00821870628481,-0.0477402437808,0.7,0.45,3,-1,0,1077,4
0.148476608998,-0.00778880462743,-0.00785807751395,-0.0446613585577,0.7,0.45,2,-1,0,1078,4
0.144250756358,-0.00780977437959,-0.00869633780937,-0.0575624909718,0.7,0.45,0,-1,0,1079,4
0.144452556989,-0.00781219132927,-0.00791232162191,-0.0689284129323,0.7,0.45,1,-1,0,1080,4
0.136891087136,-0.00781246557867,-0.00782363117816,-0.0700499314253,0.7,0.45,3,-1,0,1081,4
0.130039956308,-0.0078124960658,-0.00781377224243,-0.0701743717232,0.7,0.45,1,-1,0,1082,4
0.126547754827,-0.00781249955584,-0.00781264363313,-0.0701886167822,0.7,0.45,0,-1,0,1083,4
0.13048645156,-0.00781249994954,-0.00781251631867,-0.0701902237169,0.7,0.45,2,-1,0,1084,4
0.128862158316,-0.00781249999432,-0.00781250183632,-0.0701904065099,0.7,0.45,1,-1,0,1085,4
1.07483325396,0.0829963981905,0.0993129519406,0.159823029756,0.499000000001,0.45,0,0,1,1085,5
0.253126720325,0.124693390148,1.08958285429,0.340491477737,0.321000000001,0.45,3,2,-1,1086,5
0.291468976948,0.173787304978,1.05979057779,0.241644014236,0.301000000001,0.45,2,2,2,1087,5
0.270083223184,1.00053699841,0.0923567871303,0.166165880258,0.262000000001,0.45,1,1,2,1088,5
1.00937929027,0.194525282839,0.104085972734,0.198983751175,0.0490000000006,0.45,2,0,-1,1089,5
0.366547074112,0.229794406126,0.0959791986879,1.01471441945,0.460000000001,0.45,3,3,1,1090,5
0.451812417247,1.00156137538,0.0580238188626,0.143151102491,0.366000000001,0.45,1,1,2,1091,5
0.383726455089,0.262627321051,0.548469015244,1.07484408746,0.465000000001,0.45,3,3,1,1092,5
1.04095639491,0.688123809927,0.048262015189,0.125168434869,0.394000000001,0.45,0,0,2,1093,5
0.27824491489,0.160599409122,1.05540534614,0.187808691406,0.305000000001,0.45,2,2,2,1094,5
0.374004722254,1.03963967997,0.105074604969,0.164280076558,0.284000000001,0.45,0,1,-1,1095,5
0.386433311499,1.10615996401,0.15602107302,0.201373001235,0.391000000001,0.45,1,1,2,1096,5
1.05396381625,0.224235750111,0.0863034501618,0.13021637493,0.395000000001,0.45,0,0,2,1097,5
0.514224360915,1.1718155338,0.114385588755,0.133210896341,0.485000000001,0.45,1,1,1,1098,5
0.12657554405,0.0107969649882,0.40386813543,1.11233162252,0.438000000001,0.45,3,3,2,1099,5
0.0852374425925,0.0518280422919,1.06625357021,0.234463533456,0.432000000001,0.45,2,2,2,1100,5
0.44601907621,1.11189358854,0.115583135889,0.17655293566,0.360000000001,0.45,1,1,2,1101,5
0.0597910532366,0.046976831381,1.11692282213,0.305621161044,0.405000000001,0.45,2,2,2,1102,5
0.40434140784,0.14306457972,0.0887874878775,1.04499937141,0.511000000001,0.45,3,3,1,1103,5
1.02245203382,0.138718950003,0.0412520921011,0.101386837938,0.382000000001,0.45,0,0,2,1104,5
0.215092973673,0.106619333779,1.15717796066,0.0873715967612,0.315000000001,0.45,2,2,2,1105,5
1.14135127558,0.122437527919,0.10645000917,0.100098842175,0.351000000001,0.45,0,0,2,1106,5
0.127133614084,0.0589860911738,0.164988235056,1.06343391729,0.351000000001,0.45,3,3,2,1107,5
0.250393863507,1.16547347499,0.0531538971127,0.222673131564,0.322000000001,0.45,1,1,2,1108,5
1.02633065957,0.152621769062,0.0464820174183,0.080273146989,0.270000000001,0.45,0,0,2,1109,5
0.347054884022,0.178293226339,1.00524049981,0.0960507308113,0.354000000001,0.45,2,2,2,1110,5
0.260396089882,1.0548207597,0.0278222628933,0.142919323721,0.310000000001,0.45,1,1,2,1111,5
0.271488745847,0.0438240059467,0.0850787849886,1.05188074744,0.429000000001,0.45,3,3,2,1112,5
0.394994567216,1.16405083956,0.054625943773,0.150726224847,0.395000000001,0.45,1,1,2,1113,5
0.10084183914,0.0958407972229,1.04233815464,0.150319697233,0.422000000001,0.45,2,2,2,1114,5
0.281307186177,0.133070112285,0.177025337114,1.30224123996,0.563000000001,0.45,3,3,1,1115,5
0.0501980942976,0.0417144477237,1.04905546971,0.165225487322,0.530000000001,0.45,2,2,1,1116,5
1.05293474326,0.145751355282,0.103979634175,0.153393462471,0.402000000001,0.45,0,0,2,1117,5
0.347128358621,1.14311570083,0.144543309099,0.104750528956,0.472000000001,0.45,1,1,1,1118,5
1.00209654845,0.404496278916,0.0330418459957,0.0654730894637,0.464000000001,0.45,0,0,1,1119,5
0.0344880194649,0.0371425485892,0.364078707585,1.01051897543,0.464000000001,0.45,3,3,1,1120,5
1.09356693765,0.272309284037,0.0237298555569,0.0778155035076,0.430000000001,0.45,0,0,2,1121,5
0.147050097853,0.0658975226781,1.02501156561,0.120760172799,0.349000000001,0.45,2,2,2,1122,5
0.491524829295,1.11745976711,0.0233017627871,0.101220319141,0.300000000001,0.45,1,1,2,1123,5
0.183318937768,0.0185258825147,0.0841269709651,1.03293461351,0.468000000001,0.45,3,3,1,1124,5
0.225263705984,0.0707887498526,1.05445363196,0.152176195142,0.504000000001,0.45,2,2,1,1125,5
0.364413176954,0.126568892112,0.241167400368,1.04142583915,0.547000000001,0.45,3,3,1,1126,5
0.603195109657,1.0503193165,0.288129908334,0.0951694395169,0.585000000001,0.45,1,1,1,1127,5
1.13307918353,0.249777244085,-0.00883849163366,0.0229780599333,0.398000000001,0.45,0,0,2,1128,5
0.340529554812,0.121073042143,-0.00895830878087,1.01127039514,0.490000000001,0.45,3,3,1,1129,5
1.00935071418,0.306438974198,0.0998771214155,0.214518166116,0.699000000001,0.45,0,0,1,1130,5
0.330985572395,1.08041435792,0.0865617895114,0.180963181894,0.440000000001,0.45,1,1,2,1131,5
0.0884017620747,0.0867920874421,1.00979489158,0.148681979803,0.361000000001,0.45,2,2,2,1132,5
1.01898090359,0.157974752606,0.0688387736345,0.129683397949,0.415000000001,0.45,0,0,2,1133,5
0.316965895679,0.134137965397,0.180248495804,1.02704979404,0.423000000001,0.45,3,3,2,1134,5
0.580942081531,1.11733419384,0.0554441840516,0.107368391627,0.463000000001,0.45,1,1,1,1135,5
0.111864631115,0.0588315133915,1.03320784605,0.092241883451,0.438000000001,0.45,2,2,2,1136,5
0.381735670344,0.0939652997129,0.0612330135759,1.0313703008,0.530000000001,0.45,3,3,1,1137,5
0.100762677124,0.0713341553173,1.0486507033,0.127438939664,0.460000000001,0.45,2,2,1,1138,5
1.01082368774,0.666242727764,0.0326405304386,0.0965157682415,0.481000000001,0.45,1,0,-1,1139,5
0.210476359334,0.0777832257899,0.12589435916,1.01791342565,0.520000000001,0.45,3,3,1,1140,5
1.06229792245,0.150875254052,0.0261265989842,0.0432258427993,0.424000000001,0.45,0,0,2,1141,5
0.469502632161,0.13835795137,1.00766286419,0.0802194966078,0.373000000001,0.45,2,2,2,1142,5
1.02036369358,0.179156417965,0.151291042268,0.169844505353,0.416000000001,0.45,0,0,2,1143,5
0.644683754002,1.1357379266,0.100869342517,0.126110498781,0.417000000001,0.45,1,1,2,1144,5
1.02357235277,0.506756172486,0.0630882384875,0.107565353412,0.453000000001,0.45,0,0,1,1145,5
0.261172181515,0.0884520696618,1.01775427907,0.129441885999,0.371000000001,0.45,2,2,2,1146,5
0.0974608121167,0.0406516712788,0.691572109591,1.00417569948,0.503000000001,0.45,3,3,1,1147,5
0.42516727311,1.07998145668,0.0275003773982,0.163344939805,0.539000000001,0.45,1,1,1,1148,5
0.16972400764,0.0422177559281,-0.00293327736666,1.03103048689,0.435000000001,0.45,3,3,2,1149,5
0.307318396623,0.194188033242,1.01177610231,0.142825036829,0.359000000001,0.45,2,2,2,1150,5
1.10853316867,0.240204353151,0.0284598149509,0.134666448227,0.310000000001,0.45,1,0,-1,1151,5
0.397709074892,0.260555616132,1.02994031228,0.199285635758,0.617000000001,0.45,2,2,1,1152,5
1.09089616047,0.170254982267,0.0341744058693,0.162695260872,0.432000000001,0.45,0,0,2,1153,5
0.441425135884,1.09368088823,0.0486494842665,0.0583164404398,0.339000000001,0.45,1,1,2,1154,5
1.03770535897,0.227311173634,0.0289688204709,0.103861757902,0.499000000001,0.45,0,0,1,1155,5
0.101608222831,0.0320538267179,0.158432212545,1.10022539447,0.429000000001,0.45,3,3,2,1156,5
1.09260961524,0.401668609477,0.0799288327424,0.101545180278,0.443000000001,0.45,0,0,2,1157,5
0.216964011641,0.149258050487,1.00309242131,0.0419553277925,0.436000000001,0.45,2,2,2,1158,5
0.298839518822,0.196792124389,0.0301127932808,1.02376798476,0.533000000001,0.45,3,3,1,1159,5
0.431663301974,1.09583879239,0.0634725910163,0.0662465678986,0.432000000001,0.45,1,1,2,1160,5
0.196046111755,0.066761307677,0.12194081167,1.06108405115,0.403000000001,0.45,3,3,2,1161,5
0.284074972459,0.110285508546,1.03409621076,0.0911671167285,0.492000000001,0.45,2,2,1,1162,5
