force_0,force_1,force_2,force_3,rt,rt_threshold,target_finger,selected_finger,score,trial,run
1.48036939362,1.01276918526,0.958746230248,0.543284920993,0.005,0.45,0,0,2,0,0
0.262918931292,1.14422667728,0.343092679503,0.260556932761,0.4,0.45,1,1,2,1,0
0.359770580783,0.352367007412,1.10632052116,0.360556536142,0.275,0.45,2,2,2,2,0
0.29477788113,0.275621196743,0.339351881654,1.00125628716,0.292,0.45,3,3,2,3,0
0.174783741189,0.178474216405,1.07024117148,0.250719440841,0.293,0.45,2,2,2,4,0
0.223252867891,1.79492491966,0.262266390458,0.27162703437,0.133,0.45,1,1,2,5,0
1.13529684053,0.472049138908,0.252551672928,0.2184351162,0.136,0.45,3,0,-1,6,0
0.274723676623,1.11967305486,0.311616749356,0.268954944245,0.336,0.45,1,1,2,7,0
1.121285384,0.346984804885,0.355057918851,0.287117023795,0.335,0.45,0,0,2,8,0
0.202211065296,0.258032876297,0.287069737612,1.13311521589,0.648,0.45,3,3,1,9,0
1.05656145752,0.325165224192,0.115847570632,0.0825721444053,0.636,0.45,0,0,1,10,0
0.286641732979,0.349857401109,1.09066441156,0.260653852029,0.486,0.45,2,2,1,11,0
1.10851666042,0.383479462207,0.225903513219,0.283094216969,0.409,0.45,0,0,2,12,0
0.304507834641,1.01443398815,0.231061972394,0.287783144581,0.29,0.45,1,1,2,13,0
0.323214214178,0.216864395969,1.19429706015,0.280973262542,0.332,0.45,2,2,2,14,0
0.200499758902,0.299576391222,0.268532736711,1.1054254676,0.302,0.45,3,3,2,15,0
0.104687077821,0.407288426092,1.19095406333,0.219285178502,0.339,0.45,2,2,2,16,0
0.105996706956,1.02249567743,0.280024346549,0.225152174169,0.283,0.45,1,1,2,17,0
0.187742126548,0.235325925614,1.05196422803,0.249894252278,0.273,0.45,3,2,-1,18,0
1.16039825842,0.320731128887,0.270239111926,0.275354357009,0.381,0.45,0,0,2,19,0
0.123009924776,0.210945667377,0.263807483329,1.07128393507,0.345,0.45,3,3,2,20,0
0.573345426392,1.16052388118,0.25615268375,0.251803797638,0.414,0.45,1,1,2,21,0
1.12474988609,0.389214234139,0.275033459374,0.27292141041,0.365,0.45,0,0,2,22,0
0.25554515133,0.372507717488,1.00208321279,0.336936607268,0.302,0.45,2,2,2,23,0
0.281295656122,1.19832281229,0.237579217009,0.244025472627,0.346,0.45,0,1,-1,24,0
0.346935001569,0.0651645353433,0.212262727721,1.02706252303,0.441,0.45,3,3,2,25,0
0.111185494844,0.181684996684,1.15953238772,0.196284766803,0.403,0.45,2,2,2,26,0
0.294748212511,1.09889227727,0.157457315834,0.222390635995,0.278,0.45,1,1,2,27,0
0.2499633324,0.205470445758,1.1309890494,0.301788152914,0.329,0.45,2,2,2,28,0
0.216824174137,0.237143675235,0.257250038369,1.14274900097,0.391,0.45,3,3,2,29,0
0.157825337884,1.07673230681,0.200984736411,0.244245879289,0.375,0.45,1,1,2,30,0
0.226589595605,0.152480475661,0.916708681588,1.15356534516,0.37,0.45,3,3,2,31,0
1.25290632948,0.269205171517,0.135358242698,0.143691829182,0.401,0.45,0,0,2,32,0
0.240414825232,0.253260613586,1.15334412794,0.219672676332,0.345,0.45,2,2,2,33,0
1.83754967084,0.244881637218,0.100291614065,0.144715243398,0.442,0.45,0,0,2,34,0
0.301923569783,1.23896157668,0.158473375383,0.158944605746,0.417,0.45,1,1,2,35,0
1.292831179,0.267370160288,0.15348251146,0.191842776125,0.413,0.45,0,0,2,36,0
0.21092761422,0.172040887967,1.14381021635,0.214802527727,0.356,0.45,2,2,2,37,0
0.363358810057,1.35928676382,0.197467881667,0.244422180446,0.374,0.45,1,1,2,38,0
0.134186190633,0.175696334644,0.179618875165,1.29394589087,0.7,0.45,3,-1,0,40,0
0.134186190633,0.175696334644,0.179618875165,1.29394589087,0.00600000000002,0.45,1,3,-1,40,0
0.454876286507,0.366122931317,1.04765625208,0.376603786436,0.607,0.45,2,2,1,41,0
0.190734836019,0.292023214408,0.181709578835,1.25619336503,0.424,0.45,3,3,2,42,0
1.17405660943,0.32888619667,0.154555850049,0.296833788669,0.347,0.45,0,0,2,43,0
0.295137992184,0.266824372009,0.18511658141,1.27559840839,0.312,0.45,3,3,2,44,0
0.105399868329,0.134356413151,1.05953286621,0.258601261583,0.355,0.45,2,2,2,45,0
0.252000809292,1.21673119616,0.156472731463,0.309931735882,0.248,0.45,0,1,-1,46,0
0.143368027475,1.04911647847,0.19566761591,0.310687146847,0.349,0.45,1,1,2,47,0
1.29820380199,0.26600323214,0.162361549801,0.324906057102,0.343,0.45,0,0,2,48,0
0.171028919368,0.233696225727,0.144428871738,1.28735521996,0.287,0.45,3,3,2,49,0
0.132308795483,0.197802175865,1.1700452653,0.433372930411,0.376,0.45,2,2,2,50,0
0.202374199124,1.11108489271,0.156509769149,0.328059431887,0.335,0.45,1,1,2,51,0
0.203278419641,0.239171744527,1.03401051948,0.394150341236,0.356,0.45,2,2,2,52,0
0.191787054108,0.280376211813,0.148016839785,1.17516776044,0.287,0.45,3,3,2,53,0
0.134693904978,1.0751508494,0.127597358139,0.230509492447,0.355,0.45,1,1,2,54,0
0.100678476585,0.200753828245,0.133360279746,1.16152161947,0.347,0.45,3,3,2,55,0
1.07193139939,0.287566041029,0.126613436679,0.284965530253,0.398,0.45,0,0,2,56,0
0.432825004476,1.32309715846,0.156538834662,0.400170924906,0.371,0.45,1,1,2,57,0
1.05678157544,0.337385929755,0.176293709903,0.443101624822,0.352,0.45,0,0,2,58,0
0.1972330674,0.347469875049,1.10526247948,0.44258126723,0.343,0.45,2,2,2,59,0
1.00780047137,0.343187158494,0.113991467554,0.315610802402,0.328,0.45,0,0,2,60,0
0.122891817355,0.223171712197,1.64507911599,0.247673844102,0.386,0.45,2,2,2,61,0
0.413188997463,1.05180173409,0.0885819176455,0.257942366684,0.385,0.45,1,1,2,62,0
0.164059700054,0.309712734899,0.176903339188,1.21810082831,0.4,0.45,3,3,2,63,0
0.225739206385,1.22685867924,0.155851421371,0.308991133701,0.322,0.45,1,1,2,64,0
0.196961471878,0.261436429643,1.19729926168,0.41231214254,0.324,0.45,2,2,2,65,0
0.124775213492,0.248562512107,0.190299640089,1.02457191676,0.396,0.45,3,3,2,66,0
1.0441042031,0.300490931782,0.141439617322,0.260884791113,0.367,0.45,0,0,2,67,0
0.250592142495,1.12108039109,0.112347579992,0.287416398188,0.613,0.45,1,1,1,68,0
1.06583850921,0.244232097246,0.115799666267,0.314058181989,0.463,0.45,0,0,1,69,0
0.102200107048,0.191983271069,0.0988629465582,1.30131013779,0.339,0.45,3,3,2,70,0
0.102948620419,0.223229756434,1.12150499681,0.20885764991,0.333,0.45,2,2,2,71,0
1.27800337801,0.289494220476,0.117289375642,0.247982944836,0.384,0.45,0,0,2,72,0
0.167124954436,0.204678111458,0.120915076252,1.19188257146,0.33,0.45,3,3,2,73,0
0.633972410527,1.22894428032,0.131283005435,0.214622868932,0.371,0.45,1,1,2,74,0
0.0842755209402,0.804608818903,1.05171167547,0.188127572304,0.382,0.45,2,2,2,75,0
0.134566831891,0.356898371092,0.185739153513,1.15584943401,0.324,0.45,3,3,2,76,0
0.127763067877,0.299417605536,1.0183826175,0.203535670345,0.32,0.45,2,2,2,77,0
0.175543914476,1.39623161366,0.104464750059,0.180647604551,0.355,0.45,1,1,2,78,0
1.04707220512,0.327515116957,0.142936533574,0.171852761392,0.335,0.45,0,0,2,79,0
0.607403330112,1.10860915075,0.482327927629,0.201546262555,0.417,0.45,1,1,2,80,0
0.0613876871225,0.182698904129,0.145991295724,1.0124988507,0.355,0.45,3,3,2,81,0
1.07879291846,0.220729999486,0.122828304954,0.0779529881442,0.553,0.45,0,0,1,82,0
0.13992200254,0.236945837474,1.13438391714,0.154210828176,0.435,0.45,2,2,2,83,0
0.173070627858,1.20217944841,0.12568077045,0.206355183946,0.367,0.45,0,1,-1,84,0
0.307322282937,1.02297285226,0.176180431121,0.214454856569,0.324,0.45,1,1,2,85,0
0.256467540328,0.190287975373,1.11503460285,0.164375523452,0.36,0.45,2,2,2,86,0
0.20007083128,0.259162892109,0.13416517764,1.02333260587,0.304,0.45,3,3,2,87,0
0.13994285467,1.32776110775,0.133132980162,0.0955711307346,0.334,0.45,1,1,2,88,0
0.141646257253,0.205457153828,0.128127387612,1.11958193222,0.334,0.45,3,3,2,89,0
0.132248959741,0.284242321912,1.13129191338,0.197854329938,0.322,0.45,2,2,2,90,0
0.209223119087,1.06885441419,0.110900241385,0.157185190366,0.322,0.45,1,1,2,91,0
1.27192478689,0.315081928355,0.0904312827214,0.0729333197864,0.338,0.45,0,0,2,92,0
0.112420136552,0.206404750606,0.108796287009,1.13610053482,0.371,0.45,3,3,2,93,0
1.00158642012,0.250385494856,0.153109909774,0.123589085101,0.367,0.45,0,0,2,94,0
0.100180838266,0.195152257752,1.0267006651,0.143189376352,0.326,0.45,2,2,2,95,0
1.33909532626,0.344999351595,0.140900261915,0.0988785196643,0.355,0.45,0,0,2,96,0
0.249700147835,1.02179220176,0.154173002752,0.124644786069,0.279,0.45,1,1,2,97,0
0.295271695439,0.24997171661,0.210600904432,1.04931283387,0.305,0.45,3,3,2,98,0
0.245966696529,0.238674140606,1.04659222228,0.140255656231,0.379,0.45,2,2,2,99,0
0.220421596788,0.224009210491,0.117298332708,1.02981561277,0.366,0.45,3,3,2,100,0
0.257170979377,1.2380987194,0.133579167541,0.169685685657,0.29,0.45,1,1,2,101,0
0.125300040824,0.058893785186,1.12861387578,0.180839924319,0.366,0.45,2,2,2,102,0
0.232886608657,1.18867409159,0.140926590755,0.190307190415,0.394,0.45,1,1,2,103,0
1.25992169975,0.419365310555,0.251529677164,0.202302746057,0.311,0.45,0,0,2,104,0
0.420658309801,0.450786383153,1.07904919488,0.292190945627,0.248,0.45,2,2,2,105,0
1.07237250552,0.529188898362,0.255568640918,0.351150542582,0.276,0.45,0,0,2,106,0
0.227566862665,0.376699251423,0.2260476555,1.10366659014,0.274,0.45,3,3,2,107,0
0.322411984138,1.04497132572,0.237291349531,0.252813395434,0.249,0.45,0,1,-1,108,0
0.251248452919,1.07506681675,0.184562369134,0.222112396215,0.386,0.45,1,1,2,109,0
0.228783774975,0.26802101564,0.173596443382,1.02322771875,0.354,0.45,3,3,2,110,0
0.0921671300027,0.163643202221,1.01074129117,0.240135475009,0.335,0.45,2,2,2,111,0
0.272543858574,1.1216079858,0.1684115078,0.211020170567,0.375,0.45,1,1,2,112,0
0.197914765451,0.197650300113,1.10759427753,0.270966734768,0.332,0.45,2,2,2,113,0
0.334188218124,0.32427089552,0.170224790286,1.02368993693,0.317,0.45,3,3,2,114,0
1.09767049716,0.374028525788,0.228443372747,0.307728922231,0.317,0.45,0,0,2,115,0
0.213658073695,0.229506476047,0.254643963789,1.00684818594,0.336,0.45,3,3,2,116,0
0.316578136552,1.08428935814,0.193347374618,0.216840851134,0.258,0.45,1,1,2,117,0
1.12825373948,0.274994951774,0.192994985437,0.215461191151,0.314,0.45,0,0,2,118,0
0.18601752934,0.243158955958,1.13665203176,0.202465711603,0.299,0.45,2,2,2,119,0
1.27628122752,0.281776521755,0.152064494249,0.208354700888,0.37,0.45,0,0,2,120,0
0.135379166949,0.162527198633,0.153433639971,1.00122567447,0.332,0.45,3,3,2,121,0
0.259041519778,1.05749089093,0.178805253612,0.197961309487,0.275,0.45,1,1,2,122,0
0.191951119057,0.190716911376,1.19867529023,0.257503138286,0.365,0.45,2,2,2,123,0
0.325356263436,0.3090064355,0.171397958845,0.407795855097,0.7,0.45,3,-1,0,125,0
0.269376020903,0.249199981263,0.162527386745,1.16937683723,0.0240000000001,0.45,2,3,-1,125,0
0.304405224156,1.1048430281,0.314426273773,0.092627372191,0.292,0.45,1,1,2,126,0
1.17464986253,0.26561092582,0.155053431118,0.18200718237,0.332,0.45,0,0,2,127,0
0.310681536116,0.27229221174,1.16414599314,0.245487616164,0.251,0.45,1,2,-1,128,0
0.271560581446,0.268966876512,0.221986791355,1.30222659805,0.379,0.45,3,3,2,129,0
1.31695743939,0.370463824385,0.241530788903,0.219773646966,0.399,0.45,0,0,2,130,0
0.221009249741,0.293009567188,1.21142632899,0.27750306117,0.322,0.45,2,2,2,131,0
0.198008973959,1.21518981166,0.176972113196,0.261183197138,0.3,0.45,0,1,-1,132,0
0.255578917598,1.26865186584,0.200504545966,0.287087287139,0.329,0.45,1,1,2,133,0
0.171311082915,0.253128542694,0.202123036339,1.28037405585,0.334,0.45,3,3,2,134,0
0.236306731144,0.397842734841,1.13563434993,0.193049869722,0.422,0.45,2,2,2,135,0
0.231004647521,0.391806497228,0.177074043262,1.03269039105,0.41,0.45,3,3,2,136,0
0.242609866129,1.1650772933,0.240560213001,0.179962544554,0.37,0.45,1,1,2,137,0
0.19225990495,0.338944923832,1.02299648443,0.233572511839,0.298,0.45,2,2,2,138,0
0.197000641528,1.27851169487,0.192477793846,0.20979356218,0.289,0.45,1,1,2,139,0
1.05002065629,0.427334607272,0.205099708266,0.232308218246,0.304,0.45,0,0,2,140,0
0.227158040235,0.373501746806,0.208920326008,1.10292180845,0.258,0.45,3,3,2,141,0
0.220396541978,1.12887055554,0.211675456956,0.14344879287,0.243,0.45,0,1,-1,142,0
0.170212438082,0.311828747128,1.07490647666,0.172985019864,0.309,0.45,2,2,2,143,0
1.02640217006,0.393408879513,0.140768609532,0.162919072647,0.294,0.45,0,0,2,144,0
0.271829824698,0.345955921396,0.157281609501,1.08730212912,0.356,0.45,3,3,2,145,0
1.07107302132,0.370152697692,0.207857489245,0.158700501346,0.318,0.45,1,0,-1,146,0
0.0656018349674,0.266665503335,1.08026680187,0.191275187176,0.323,0.45,2,2,2,147,0
0.166257111938,1.06980958233,0.172124416247,0.164279812241,0.328,0.45,1,1,2,148,0
0.180757233706,0.266545827304,0.127096383174,1.03637154463,0.412,0.45,3,3,2,149,0
0.140555952369,0.121140763915,1.00984862079,0.145019709629,0.392,0.45,2,2,2,150,0
0.132978196721,0.227454611266,0.0952593033837,1.01658003436,0.394,0.45,3,3,2,151,0
0.168039862838,1.13921011879,0.155868719539,0.164836668756,0.331,0.45,0,1,-1,152,0
0.202135745375,0.174373637749,1.13241737584,0.270694551698,0.317,0.45,2,2,2,153,0
1.24247127307,0.242941545532,0.125117456294,0.570030014148,0.348,0.45,0,0,2,154,0
0.114855380513,1.09692376822,0.103208803783,0.155444373155,0.373,0.45,1,1,2,155,0
1.03462966254,0.239159424261,0.122636058543,0.145415576404,0.367,0.45,0,0,2,156,0
1.08544051001,0.223145779524,0.133372713024,0.14036146527,0.384,0.45,1,0,-1,157,0
0.0745588136906,0.221255942136,1.14705546979,0.203860161051,0.395,0.45,2,2,2,158,0
0.216559769267,0.328937897928,0.193902976224,1.17763631218,0.699,0.45,3,3,1,159,0
0.2943222737,1.08677167822,0.139610711693,0.128714644775,0.538,0.45,1,1,1,160,0
0.192554036245,0.135561203059,0.115141990165,1.14095826203,0.475,0.45,3,3,1,161,0
0.0691184623854,0.133583510024,1.01743199783,0.506595153194,0.435,0.45,2,2,2,162,0
1.09282588506,0.342229925516,0.135232936575,0.26440308849,0.437,0.45,0,0,2,163,0
0.127429682046,0.19490639394,0.145306872652,1.17494398508,0.405,0.45,3,3,2,164,0
1.17187721328,0.216532216828,0.150214519383,0.23356956827,0.371,0.45,0,0,2,165,0
0.167707072679,0.205108770332,1.06284749129,0.299007570539,0.321,0.45,2,2,2,166,0
0.147583683107,1.12250940222,0.153340790625,0.30082113343,0.34,0.45,1,1,2,167,0
1.10701454452,0.271946219675,0.176462604278,0.326936217998,0.307,0.45,0,0,2,168,0
0.143190479182,1.08050394555,0.15266505801,0.282186496537,0.356,0.45,1,1,2,169,0
0.128630941055,0.275869748579,1.13992741646,0.337579434689,0.367,0.45,2,2,2,170,0
0.242476269648,0.309692873273,0.217208492512,1.26297976356,0.284,0.45,3,3,2,171,0
0.171058604927,0.343787455698,1.14012243823,0.356760186097,0.275,0.45,2,2,2,172,0
0.176357809892,1.24178069968,0.0911906061028,0.370239940531,0.258,0.45,1,1,2,173,0
0.123636706113,0.244968249597,0.125246898836,1.15027458977,0.366,0.45,3,3,2,174,0
0.860453390243,1.07373034356,0.108370301776,0.266554877406,0.399,0.45,1,1,2,175,0
1.09178836352,0.311347807391,0.125742468143,0.309899195901,0.417,0.45,0,0,2,176,0
0.0740496355304,0.219475149931,0.186437838591,1.15291599534,0.368,0.45,3,3,2,177,0
1.08422351095,0.344213965064,0.129999826934,0.295726226724,0.443,0.45,0,0,2,178,0
0.122140052029,0.196337659967,1.16105282394,0.306466621572,0.357,0.45,2,2,2,179,0
0.188545940033,1.06873472923,0.124624666244,0.365143618288,0.327,0.45,0,1,-1,180,0
0.237836457078,0.195075911057,0.14279794353,1.06156922455,0.378,0.45,2,3,-1,181,0
0.100765141789,0.188035388754,0.193299381207,1.14634150565,0.445,0.45,3,3,2,182,0
0.148485380452,1.11954525461,0.161571623663,0.219362213022,0.378,0.45,1,1,2,183,0
0.13887325107,0.30640301045,1.30095844035,0.33726926421,0.337,0.45,2,2,2,184,0
0.178563245974,1.22309877812,0.132851109852,0.307477785164,0.362,0.45,1,1,2,185,0
0.150505192734,0.224512030637,0.138295480725,1.09734035175,0.335,0.45,3,3,2,186,0
0.156640070089,0.30084143162,1.11409291657,0.255085080303,0.334,0.45,2,2,2,187,0
1.21546417617,0.288620907405,0.0803233364488,0.254962715612,0.4,0.45,0,0,2,188,0
0.151683780189,1.2160159681,0.100150194854,0.198059039838,0.439,0.45,1,1,2,189,0
1.17494595278,0.318978077386,0.167534051317,0.347086690697,0.438,0.45,0,0,2,190,0
0.123659365138,0.252012624186,0.167327716598,1.01955545987,0.371,0.45,3,3,2,191,0
1.01535852662,0.282367446839,0.196000042396,0.287433635329,0.419,0.45,0,0,2,192,0
0.151545002448,0.275837973483,1.13895929325,0.318157457672,0.347,0.45,2,2,2,193,0
0.196777446678,0.318854165673,0.164646517848,1.03116628921,0.389,0.45,3,3,2,194,0
0.448663807234,1.06528981207,0.160357886299,0.258378503117,0.503,0.45,1,1,1,195,0
0.0764984446577,0.298084144405,0.161504504324,1.01348721287,0.418,0.45,3,3,2,196,0
0.203368814073,0.279432829156,1.21705452421,0.336800108929,0.351,0.45,2,2,2,197,0
0.176994570787,1.06990395694,0.140703361044,0.318090483935,0.292,0.45,1,1,2,198,0
1.07045260675,0.222609889346,0.118507076981,0.314677391446,0.344,0.45,0,0,2,199,0
0.0914664739942,1.26517663074,0.121399036338,0.262643631234,0.274,0.45,1,1,2,200,0
0.102453547497,0.193872760089,1.07417985896,0.240881202139,0.182,0.45,2,2,2,201,0
1.13148149918,0.310058982719,0.163611056637,0.677520833201,0.38,0.45,0,0,2,202,0
0.218826875126,0.187040112008,0.107832158181,1.13801642119,0.304,0.45,3,3,2,203,0
1.09767453612,0.336696596296,0.143018610939,0.25704851462,0.383,0.45,0,0,2,204,0
0.0990967727393,0.166995038636,0.125825535315,1.09950790626,0.357,0.45,3,3,2,205,0
0.151972569432,1.26306396883,0.135542808498,0.102896623508,0.317,0.45,1,1,2,206,0
0.186065179043,0.154372994975,1.00979250053,0.215989513438,0.416,0.45,2,2,2,207,0
0.25456326036,1.2681068077,0.164422073561,0.223802639118,0.401,0.45,1,1,2,208,0
0.212220904323,0.216660117439,0.157086045156,1.13258589319,0.343,0.45,3,3,2,209,0
0.172564207948,0.333481488445,1.07545734199,0.201151314836,0.357,0.45,2,2,2,210,0
1.05755981528,0.338077030465,0.173611562402,0.224789141853,0.356,0.45,0,0,2,211,0
0.202599447843,1.16932210977,0.166863556748,0.196438344126,0.413,0.45,1,1,2,212,0
1.4158149454,0.27527736814,0.147659544261,0.179100799209,0.42,0.45,0,0,2,213,0
0.134522118272,0.180382029408,1.24496751909,0.173628690414,0.324,0.45,2,2,2,214,0
0.30291731078,0.324239787378,0.147626614386,0.376653786293,0.7,0.45,3,-1,0,216,0
0.202694002021,0.2226109541,0.128763411918,1.06163509779,0.153,0.45,0,3,-1,216,0
0.512232031998,0.332473396939,0.39509356727,0.109936162847,0.7,0.45,0,-1,0,218,1
1.29983739625,0.35754466753,0.408225566913,0.111397230076,0.0880000000001,0.45,3,0,-1,218,1
0.532402658965,0.649449101945,1.06253039399,0.399025479796,0.406,0.45,2,2,2,219,1
0.451513997445,1.25708016467,0.356407314978,0.139651966339,0.315,0.45,1,1,2,220,1
0.350744662342,0.27076586912,1.13270090432,0.240286076793,0.289,0.45,2,2,2,221,1
0.345391707661,0.540825732353,0.49369307906,1.07347126839,0.585,0.45,3,3,1,222,1
0.739036184952,1.28960519619,0.187419597351,0.0851722913375,0.615,0.45,1,1,1,223,1
0.146620772548,0.464576416782,0.241644047095,1.41710853301,0.644,0.45,3,3,1,224,1
1.36523812503,0.614932107912,0.187281664172,0.186235440278,0.514,0.45,0,0,1,225,1
0.386537045157,0.23005377882,1.06636912801,0.262115609841,0.394,0.45,2,2,2,226,1
0.214865907809,1.07044730543,0.222101335961,0.239910547233,0.26,0.45,0,1,-1,227,1
0.376870465818,1.1040984505,0.257719821102,0.259743220305,0.25,0.45,1,1,2,228,1
1.06999148053,0.357756365151,0.221398305564,0.469964058127,0.308,0.45,0,0,2,229,1
0.365920800605,0.256663247499,1.01892958546,0.258725237844,0.272,0.45,2,2,2,230,1
0.232468092821,1.10842782764,0.156972699474,0.220288537785,0.296,0.45,1,1,2,231,1
0.237342537343,0.13098392529,0.435917231378,1.25350371892,0.376,0.45,3,3,2,232,1
0.136618281194,1.11225063875,0.127362063069,0.216466973656,0.392,0.45,1,1,2,233,1
0.234165526118,0.156362968952,1.13672361393,0.209649903325,0.352,0.45,2,2,2,234,1
0.190227468055,0.177022069052,0.0901280836098,1.03355480755,0.356,0.45,3,3,2,235,1
0.140390591978,1.01927946806,0.325052641297,0.0893835822954,0.394,0.45,2,1,-1,236,1
1.00197391943,0.193105020125,0.160407212063,0.208557478846,0.315,0.45,0,0,2,237,1
0.37482559531,1.08513568743,0.127759412581,0.148984045578,0.34,0.45,1,1,2,238,1
1.12365240414,0.30008197962,0.208736572243,0.15640408009,0.357,0.45,0,0,2,239,1
0.278380277459,0.232842389059,1.04939971745,0.156911322539,0.308,0.45,3,2,-1,240,1
1.13317384902,0.247929345388,0.277398465566,0.175402003486,0.36,0.45,0,0,2,241,1
0.314406522748,1.10499777712,0.217550207191,0.175926511879,0.433,0.45,1,1,2,242,1
0.487688979774,0.33357761722,0.233657893092,1.28327191417,0.695,0.45,3,3,1,243,1
0.416874025016,0.379286098835,1.90383838436,0.137125313862,0.599,0.45,2,2,1,244,1
0.129223782026,0.257339655185,0.224666702026,1.17452345498,0.541,0.45,3,3,1,245,1
0.170099430995,1.24945816238,0.322733436829,0.170779769702,0.473,0.45,1,1,1,246,1
0.27552940443,0.413038408652,1.09439073447,0.200977598549,0.366,0.45,2,2,2,247,1
1.11364798542,0.356958616367,0.218965363616,0.205342042709,0.321,0.45,1,0,-1,248,1
1.0319539809,0.378769086563,0.277147660278,0.18004447867,0.357,0.45,0,0,2,249,1
0.309927563243,0.220030357327,1.27100272347,0.62689764047,0.367,0.45,2,2,2,250,1
0.756841072144,1.04683539124,0.356616632924,0.175381311947,0.377,0.45,0,1,-1,251,1
0.40045355232,0.0940659075105,0.225920914065,1.19634029023,0.391,0.45,3,3,2,252,1
1.17914092774,0.325088494786,0.188329991786,0.120176533013,0.406,0.45,0,0,2,253,1
0.219869704595,1.10075743966,0.18543602247,0.128982023857,0.396,0.45,1,1,2,254,1
0.20358227011,0.176512238367,1.08484385749,0.148019793314,0.38,0.45,2,2,2,255,1
0.216990471639,0.221034715284,0.23553849724,1.07354255691,0.399,0.45,3,3,2,256,1
0.119727817252,0.19887236658,0.13431641826,1.01394811524,0.407,0.45,2,3,-1,257,1
0.205993176854,1.09212771028,0.254535191322,0.149118709536,0.466,0.45,1,1,1,258,1
0.395137223492,0.229784060121,0.279794066713,0.521883296238,0.7,0.45,3,-1,0,260,1
1.10883234754,0.213453721518,0.172295122143,0.191347687386,0.422,0.45,0,0,2,260,1
0.225335183809,0.269164803762,0.262719013463,1.0368142695,0.365,0.45,3,3,2,261,1
0.310944487503,1.10001491945,0.193467378267,0.153418271639,0.33,0.45,1,1,2,262,1
1.1168788681,0.311564129705,0.209818893286,0.171257242871,0.317,0.45,0,0,2,263,1
0.34959933539,0.267514514456,1.11614104146,0.202284285341,0.303,0.45,2,2,2,264,1
0.312083501158,1.08806472379,0.128312588211,0.187998696756,0.321,0.45,0,1,-1,265,1
0.380478673787,0.286954290499,1.05067116713,0.184409708212,0.512,0.45,2,2,1,266,1
0.271208627413,0.243065363533,0.169713796416,1.07680100821,0.421,0.45,3,3,2,267,1
0.199179932503,1.14579047012,0.164349441738,0.0998561208089,0.367,0.45,1,1,2,268,1
0.20223498208,0.228458426559,1.01052931269,0.115403369307,0.366,0.45,2,2,2,269,1
0.194512892444,1.23296839874,0.419178785398,0.117814740309,0.422,0.45,1,1,2,270,1
0.251992640505,0.197119407878,1.05075804183,0.294831971142,0.391,0.45,3,2,-1,271,1
0.138409642593,0.161271420657,1.10665785952,0.0798921283018,0.467,0.45,2,2,1,272,1
1.40779577341,0.224340334177,0.116229706303,0.0972333490102,0.421,0.45,0,0,2,273,1
0.19392821548,0.155221705229,0.164552028103,1.13648554964,0.365,0.45,3,3,2,274,1
1.03041858805,0.351499358478,0.130590779124,0.0858813520123,0.406,0.45,0,0,2,275,1
0.334490997369,1.10534000207,0.214650357836,0.127602578189,0.465,0.45,1,1,1,276,1
1.17590530122,0.268771267323,0.156077245011,0.123773430963,0.446,0.45,0,0,2,277,1
0.322862422426,0.26785483167,1.13152606409,0.136702620984,0.352,0.45,2,2,2,278,1
0.240848889274,0.274228772091,0.155479686201,1.11602948086,0.344,0.45,3,3,2,279,1
0.258536136859,1.13307924622,0.157379656373,0.133383567809,0.339,0.45,1,1,2,280,1
0.266285301289,0.339591381751,1.0469390158,0.129889556877,0.326,0.45,2,2,2,281,1
0.867282603715,1.10408738465,0.123524718321,0.100658088702,0.403,0.45,1,1,2,282,1
0.159448964873,0.216300075229,0.251492512814,1.10670361377,0.371,0.45,3,3,2,283,1
0.288182450163,0.304276518438,1.04096448987,0.095359577658,0.357,0.45,2,2,2,284,1
1.22335892448,0.321468019456,0.0885179433461,0.107522585727,0.372,0.45,0,0,2,285,1
0.247862452294,1.170783547,0.273912197045,0.0895684215736,0.418,0.45,1,1,2,286,1
1.0211705889,0.257863980344,0.121245286789,0.108418710138,0.434,0.45,0,0,2,287,1
0.284127515005,0.202372040902,0.125714872699,1.16234728169,0.407,0.45,3,3,2,288,1
1.16484759044,0.290488120971,0.151254411806,0.103738793245,0.367,0.45,0,0,2,289,1
0.349585601213,0.228878488403,0.824275672027,1.00746366383,0.456,0.45,3,3,1,290,1
0.192971179602,1.06055444374,0.0916486879321,0.101064015132,0.428,0.45,2,1,-1,291,1
0.214724453464,1.09774929806,0.257420968646,0.210106686554,0.446,0.45,1,1,2,292,1
0.108443389662,0.112085838,0.224073567958,1.02131274411,0.403,0.45,3,3,2,293,1
0.345405540652,1.00255752775,0.203189955408,0.102219388593,0.353,0.45,1,1,2,294,1
0.301321800187,0.254056476467,1.09834456364,0.166085206233,0.342,0.45,2,2,2,295,1
1.14615281305,0.302248817517,0.178643912615,0.177903069889,0.362,0.45,0,0,2,296,1
0.341901647875,1.18279304601,0.193187407564,0.137403257185,0.329,0.45,1,1,2,297,1
1.11509840231,0.332535866423,0.194367793421,0.163550823692,0.377,0.45,0,0,2,298,1
0.426960357466,0.351175273309,1.10360393106,0.180354832382,0.319,0.45,2,2,2,299,1
0.328881843714,0.24688667183,0.174031070687,1.00155633595,0.431,0.45,3,3,2,300,1
1.14174669426,0.316444532808,0.185541070009,0.0882974533077,0.376,0.45,0,0,2,301,1
0.384658041961,1.129305615,0.193432621752,0.039634339103,0.257,0.45,1,1,2,302,1
0.429754881883,0.294725842417,1.060017779,0.13012505061,0.339,0.45,2,2,2,303,1
0.51599702544,0.2963059557,0.162619297376,1.09478560467,0.397,0.45,3,3,2,304,1
0.258373560091,0.193723234105,1.05210545929,0.175673444056,0.431,0.45,2,2,2,305,1
0.276185489008,1.05210409506,0.268562500747,0.213162244071,0.329,0.45,1,1,2,306,1
0.404287663592,0.339417162416,1.01719753463,0.20869733048,0.341,0.45,3,2,-1,307,1
0.169478781239,1.0026688859,0.246459752134,0.186134036751,0.357,0.45,1,1,2,308,1
1.22314970165,0.379847188202,0.279148391791,0.201141639469,0.292,0.45,0,0,2,309,1
0.335035050668,0.282216226012,0.218532015999,1.07027930718,0.355,0.45,2,3,-1,310,1
1.00549540235,0.317987133129,0.274332001581,0.190891318411,0.397,0.45,0,0,2,311,1
0.387990977766,0.275517571756,0.236894153277,1.14709855717,0.376,0.45,3,3,2,312,1
1.02892732041,0.328403975742,0.19842669662,0.119563386583,0.435,0.45,0,0,2,313,1
0.425591841467,0.247562799187,1.11233032005,0.133554536187,0.37,0.45,2,2,2,314,1
0.274307736571,0.223633545421,0.140593517965,1.07280389929,0.406,0.45,3,3,2,315,1
0.290932595642,1.17058793864,0.238958083493,0.170070231386,0.328,0.45,1,1,2,316,1
0.375419191418,0.247528702208,0.176929017235,1.00842370385,0.364,0.45,3,3,2,317,1
0.221919331468,0.380903147451,1.0725238874,0.190247489428,0.351,0.45,2,2,2,318,1
0.202062266614,1.00229765351,0.19675544641,0.182956204674,0.335,0.45,1,1,2,319,1
0.221765623113,0.278946967578,1.07248131833,0.173605049795,0.359,0.45,2,2,2,320,1
1.14961695624,0.29115168541,0.194639444151,0.201948112572,0.374,0.45,0,0,2,321,1
0.165029905432,1.0129065414,0.222112366625,0.162658092704,0.428,0.45,1,1,2,322,1
1.00384521065,0.266646522529,0.251899366087,0.183976035038,0.418,0.45,0,0,2,323,1
0.295550556073,0.177210644584,0.183696573334,1.04856117423,0.419,0.45,3,3,2,324,1
1.00739609564,0.289981427416,0.191215843489,0.101774370994,0.37,0.45,0,0,2,325,1
0.234565743766,1.02772705095,0.209962760445,0.159032132153,0.488,0.45,1,1,1,326,1
0.372449770358,0.274194730095,1.05103718599,0.161776601868,0.417,0.45,2,2,2,327,1
0.285493740513,0.21205568097,0.193467382812,1.00967730543,0.375,0.45,3,3,2,328,1
0.275674359173,1.04571429131,0.249292559432,0.229848626572,0.328,0.45,1,1,2,329,1
0.276578666446,0.145714018476,0.137965914588,1.08615756897,0.669,0.45,3,3,1,330,1
0.16670632876,0.111852835759,1.01439507954,0.196426265176,0.488,0.45,2,2,1,331,1
1.13905999878,0.106157074634,0.168934296432,0.105452261316,0.388,0.45,0,0,2,332,1
0.423467114102,0.203971844162,1.0528442534,0.224862559021,0.372,0.45,2,2,2,333,1
0.162690404644,1.21311902039,0.539403282153,0.202997185805,0.559,0.45,1,1,1,334,1
1.35750546758,0.126171563556,0.076235353584,0.0881101549217,0.42,0.45,0,0,2,335,1
0.495078108508,0.227162347453,0.181632784757,1.04108299142,0.377,0.45,3,3,2,336,1
1.183171857,0.469857496165,0.135927145308,0.197989496182,0.42,0.45,0,0,2,337,1
0.411762839739,0.144204653442,0.132382907699,1.13325965906,0.395,0.45,3,3,2,338,1
0.272571169525,0.150169820982,1.06900464635,0.14004586315,0.401,0.45,2,2,2,339,1
0.241561169537,1.04274499513,0.192847841314,0.213382547929,0.372,0.45,1,1,2,340,1
0.374773900651,0.089341211732,0.256745143813,1.08468360076,0.392,0.45,3,3,2,341,1
0.260318354235,1.00898647874,0.169309299194,0.178698687288,0.332,0.45,1,1,2,342,1
0.375803757533,0.221616941807,1.06166544377,0.21062770996,0.353,0.45,2,2,2,343,1
1.06857457787,0.236460230408,0.129824840924,0.215865135752,0.392,0.45,0,0,2,344,1
0.423754780844,0.194400047255,1.0076721176,0.175031760694,0.352,0.45,2,2,2,345,1
0.267029141874,0.24172470818,0.241640929384,1.13495792407,0.366,0.45,3,3,2,346,1
1.08699318726,0.270603214904,0.214718802583,0.209629227713,0.368,0.45,0,0,2,347,1
0.332637266395,1.04055276717,0.297374977663,0.181804347873,0.437,0.45,1,1,2,348,1
1.07771258281,0.191081185881,0.187393902449,0.162928905986,0.402,0.45,0,0,2,349,1
0.443302909237,0.242021621658,1.01521667639,0.155650109669,0.378,0.45,2,2,2,350,1
0.296895228246,0.27709592313,0.152875622712,0.206972437499,0.7,0.45,3,-1,0,352,1
0.202681589699,0.155653873361,0.112541110889,1.12771947915,0.135,0.45,1,3,-1,352,1
0.485902420225,0.317044839081,1.05038516216,0.186691612352,0.408,0.45,2,2,2,353,1
0.451742451228,1.11344023505,0.266968583042,0.142672023978,0.433,0.45,1,1,2,354,1
0.429232898018,0.253837834925,0.197844026728,1.08813311394,0.499,0.45,3,3,1,355,1
0.226015642918,0.133634116382,1.00515465584,0.105174737488,0.438,0.45,2,2,2,356,1
1.1006547857,0.274170857161,0.237495207899,0.13509477571,0.365,0.45,0,0,2,357,1
0.343509770049,0.19691720382,0.261522600724,1.10320790128,0.36,0.45,3,3,2,358,1
1.02546838145,0.33703779232,0.253042647571,0.150343099883,0.348,0.45,0,0,2,359,1
0.381436845021,1.07497398378,0.325588743814,0.167485354856,0.405,0.45,1,1,2,360,1
1.12298034578,0.266203366398,0.305449900235,0.101032457336,0.498,0.45,0,0,1,361,1
0.398384251869,1.14099103281,0.339012023139,0.129558854986,0.446,0.45,1,1,2,362,1
0.311159228553,0.310520498962,0.258006171356,1.05484707992,0.402,0.45,3,3,2,363,1
0.320386706148,0.315169385309,1.00685153348,0.148836601465,0.445,0.45,2,2,2,364,1
0.255137276017,0.246246000355,0.217853682342,1.11551295676,0.426,0.45,3,3,2,365,1
0.195575848786,1.00863764092,0.242101312941,0.121853067811,0.366,0.45,1,1,2,366,1
0.359656958215,0.329470661596,1.02596100655,0.133276642649,0.422,0.45,2,2,2,367,1
0.323499661652,1.00718571222,0.358697696363,0.20962590237,0.321,0.45,1,1,2,368,1
1.05133528264,0.324998022054,0.414304645223,0.184893398447,0.41,0.45,0,0,2,369,1
0.42387437224,0.239555381135,0.249205877408,1.03380625554,0.393,0.45,3,3,2,370,1
1.09524345138,0.311693711713,0.273705169545,0.152191391917,0.386,0.45,0,0,2,371,1
0.421442851049,0.2940077468,1.04308903028,0.133910457757,0.367,0.45,2,2,2,372,1
0.241182092973,1.007991676,0.258782426883,0.165767786941,0.381,0.45,0,1,-1,373,1
0.716579221437,0.190991250808,1.00317844627,0.159678873928,0.401,0.45,2,2,2,374,1
0.427657748958,0.247066663188,0.263733905902,1.01626240157,0.381,0.45,3,3,2,375,1
0.23721224377,1.09460298936,0.238081167237,0.172909927499,0.277,0.45,1,1,2,376,1
0.535989188108,0.196850466244,0.191659859437,1.00115897319,0.38,0.45,3,3,2,377,1
0.335743182582,0.190943472251,1.01770887233,0.0804667041602,0.432,0.45,2,2,2,378,1
0.171013473951,1.01543330384,0.178157182926,0.162600443927,0.388,0.45,1,1,2,379,1
1.21338658134,0.202765741443,0.172878930897,0.143433447553,0.377,0.45,0,0,2,380,1
0.430865263059,0.192580955755,0.170666079334,1.00783960924,0.41,0.45,3,3,2,381,1
1.00946659563,0.292120373734,0.187135783149,0.0948278353677,0.45,0.45,0,0,1,382,1
0.265512277674,1.11216824503,0.203124632653,0.0660443714542,0.467,0.45,1,1,1,383,1
0.349353738548,0.317146794148,0.487745143495,0.148148487235,0.7,0.45,2,-1,0,385,1
0.326075065108,0.267099199889,1.05410380957,0.13815212283,0.0800000000002,0.45,0,2,-1,385,1
0.390486329057,1.00607715309,0.196248502195,0.0847509493175,0.456,0.45,1,1,1,386,1
0.465605413551,0.285244741269,1.0067140579,0.0916641409957,0.47,0.45,2,2,1,387,1
0.314434506832,0.313404502759,0.236071386651,1.01394446663,0.417,0.45,3,3,2,388,1
0.210364957338,1.04611413184,0.247773438373,0.190025847112,0.346,0.45,1,1,2,389,1
0.387628996948,0.507927933323,0.279774968702,1.18457433602,0.391,0.45,3,3,2,390,1
0.261160472874,0.393197223793,1.03673808238,0.119803177365,0.404,0.45,2,2,2,391,1
1.02503787291,0.407287007654,0.264633417845,0.207273965471,0.366,0.45,0,0,2,392,1
0.273410228597,0.303571559709,1.09483177539,0.296244150525,0.438,0.45,2,2,2,393,1
0.196954573547,1.07549085439,0.215709233075,0.0672122756018,0.368,0.45,1,1,2,394,1
1.11740822788,0.390871195824,0.265667435633,0.130499237824,0.387,0.45,0,0,2,395,1
0.153524497425,0.458600032409,0.265410204125,0.160027061699,0.7,0.45,3,-1,0,397,1
1.35588880834,0.509970964368,0.253370256194,0.0448820024607,0.557,0.45,0,0,1,397,1
0.210712154564,1.1547779547,0.186060172156,0.19483568996,0.427,0.45,1,1,2,398,1
0.429452276043,0.431895063503,1.04772797625,0.172767295471,0.412,0.45,2,2,2,399,1
0.292050634555,0.314993087908,0.284495077608,1.02175454532,0.342,0.45,3,3,2,400,1
0.373720796937,0.298057432185,0.213378712006,1.21241246307,0.399,0.45,2,3,-1,401,1
0.936277692985,1.00135167857,0.276871575279,0.178295152427,0.444,0.45,1,1,2,402,1
0.255140336952,0.285809619755,1.03664925941,0.11454963823,0.385,0.45,3,2,-1,403,1
0.157337971317,1.07407604138,0.291154541489,0.109167437347,0.43,0.45,1,1,2,404,1
1.1565280087,0.385676146768,0.289912121868,0.140769254301,0.358,0.45,0,0,2,405,1
0.341320673522,0.305826662048,0.268768074348,1.10591520134,0.382,0.45,3,3,2,406,1
1.1635117182,0.351439981241,0.204276790767,0.103171564778,0.451,0.45,0,0,1,407,1
0.333283668044,0.310691809111,1.0315439138,0.099475435999,0.394,0.45,2,2,2,408,1
1.00919550312,0.268107948601,0.134441051016,0.13240260339,0.411,0.45,0,0,2,409,1
0.268418301169,1.12460708537,0.164731533441,0.0965334988035,0.405,0.45,1,1,2,410,1
0.286257767289,0.220962555551,0.167779843432,1.00876036958,0.385,0.45,3,3,2,411,1
0.300242170525,0.168257698128,1.01036026487,0.141774860584,0.414,0.45,2,2,2,412,1
0.202791435361,1.04360919998,0.15100004709,0.12871242575,0.395,0.45,1,1,2,413,1
0.295571967347,0.245808502499,1.04847429213,0.12577956512,0.405,0.45,2,2,2,414,1
0.334751520191,0.265415726298,0.184345637362,1.02345605778,0.41,0.45,3,3,2,415,1
1.10831150625,0.291382376689,0.178678816183,0.125677368844,0.378,0.45,1,0,-1,416,1
1.1188675246,0.284612386919,0.1753960811,0.0940490948886,0.405,0.45,0,0,2,417,1
0.307721095913,0.244094042068,0.168106573991,1.05080396475,0.411,0.45,3,3,2,418,1
1.01049333002,0.278034007519,0.194679348578,0.0922606743213,0.379,0.45,0,0,2,419,1
0.450033261137,0.298165580671,1.02160177713,0.0970863679605,0.372,0.45,2,2,2,420,1
1.00518858547,0.268349086129,0.1721952509,0.123457494197,0.405,0.45,0,0,2,421,1
0.428929128182,0.28142403185,0.190549943388,1.12528563018,0.39,0.45,3,3,2,422,1
0.249444623703,1.07605478675,0.166734851328,0.06116656387,0.35,0.45,1,1,2,423,1
0.391545236263,0.347856149511,1.06247404838,0.107836736284,0.346,0.45,2,2,2,424,1
0.234300658704,1.06556104966,0.19720845653,0.147360953607,0.361,0.45,1,1,2,425,1
0.287606533761,0.103538272973,0.112769445888,1.00482417619,0.4,0.45,3,3,2,426,1
0.152097139224,0.258928111697,1.03147587142,0.132863421981,0.423,0.45,2,2,2,427,1
0.130759979171,0.186349930118,0.255747490668,1.04039590644,0.386,0.45,3,3,2,428,1
1.04169505319,0.336564926929,0.257362414739,0.0939488351125,0.429,0.45,0,0,2,429,1
0.39166546905,0.29225794591,1.01560729972,0.0686478041536,0.364,0.45,2,2,2,430,1
1.03026401677,0.440182682807,0.158504935852,0.0958060843986,0.492,0.45,0,0,1,431,1
0.434123641315,1.1832195435,0.155804115148,0.0515807883133,0.495,0.45,1,1,1,432,1
1.07148537382,0.261456954528,0.1959582746,0.0411805225032,0.473,0.45,0,0,1,433,1
0.379573849501,0.340311024663,1.11355136836,0.0853271561285,0.42,0.45,1,2,-1,434,2
0.305570692801,0.277148632385,1.13187703015,0.0993691155047,0.416,0.45,2,2,2,435,2
0.359395578655,0.225890881495,0.188529543009,1.00623411386,0.431,0.45,3,3,2,436,2
1.1246360433,0.312638031092,0.202691599514,0.0909210450446,0.377,0.45,0,0,2,437,2
0.234021097976,0.145809602639,0.155975875094,1.03402856016,0.445,0.45,3,3,2,438,2
0.245460098954,0.252312675129,1.05485685836,0.132197017548,0.419,0.45,2,2,2,439,2
1.11133811764,0.316435014896,0.189948396818,0.128844211462,0.418,0.45,0,0,2,440,2
0.347662511403,1.15354072525,0.192777467715,0.070689017511,0.322,0.45,1,1,2,441,2
1.03638269075,0.289976705792,0.203597820333,0.0968148779242,0.379,0.45,0,0,2,442,2
0.357845469218,0.265829950955,1.10233918743,0.0491323221136,0.324,0.45,2,2,2,443,2
0.20226198679,1.13775734273,0.138735778276,0.124245802853,0.326,0.45,1,1,2,444,2
0.286269163145,0.26270751314,0.163784447767,1.115316355,0.67,0.45,3,3,1,445,2
0.128933186456,1.06357202353,0.144211341425,0.101768305567,0.501,0.45,1,1,1,446,2
1.2715116689,0.240811848149,0.154306484618,0.0390222985669,0.401,0.45,0,0,2,447,2
0.292468367767,0.221669364476,0.17512950748,1.2210515906,0.413,0.45,3,3,2,448,2
0.184634741562,0.14170048577,1.07523895636,0.0721132953671,0.412,0.45,2,2,2,449,2
1.13529598197,0.233734602884,0.187934945289,0.092456278076,0.363,0.45,0,0,2,450,2
0.380472260802,0.232640323257,1.0173237837,0.0274168488071,0.337,0.45,2,2,2,451,2
0.219431255373,0.19279572613,0.183372298475,1.11404764814,0.417,0.45,3,3,2,452,2
0.204991677367,1.07321891109,0.185536088969,0.0862767028787,0.308,0.45,0,1,-1,453,2
0.185506739706,1.1109903373,0.289730121962,0.0925183827235,0.362,0.45,1,1,2,454,2
0.275527820479,0.21201670319,1.14825976773,0.0668066625473,0.351,0.45,2,2,2,455,2
0.190384285149,1.13019317337,0.171981082367,0.0808476850441,0.383,0.45,1,1,2,456,2
0.297759933928,0.179191952209,0.188920047368,1.22343648825,0.384,0.45,3,3,2,457,2
0.135147162307,1.14023220214,0.188692832127,0.0862919273294,0.323,0.45,1,1,2,458,2
1.10290991061,0.295954406519,0.187045095566,0.118988138764,0.381,0.45,0,0,2,459,2
0.302389346333,0.315678795652,1.10353736714,0.107119515165,0.344,0.45,2,2,2,460,2
0.186765838992,0.256248851341,0.162416127742,1.10390878538,0.406,0.45,3,3,2,461,2
1.18302249925,0.333192723959,0.237724080744,0.152690132628,0.377,0.45,0,0,2,462,2
0.22913046504,0.157597046741,0.215043006985,1.04437298808,0.446,0.45,3,3,2,463,2
0.181637696003,0.250364041216,1.13745718072,0.0828305946021,0.377,0.45,2,2,2,464,2
1.01940317155,0.337173614727,0.229035245347,0.133209749294,0.373,0.45,0,0,2,465,2
0.331524998695,1.21009856584,0.182265283822,0.0600613239555,0.332,0.45,1,1,2,466,2
0.218175610103,0.287342503394,1.05384396179,0.0317554107499,0.353,0.45,2,2,2,467,2
0.278810436038,1.17370299626,0.312033030109,0.122266026449,0.36,0.45,1,1,2,468,2
0.334636784635,0.173157600021,0.400326882492,1.2134396619,0.382,0.45,3,3,2,469,2
0.145758724984,1.150635308,0.224040577375,0.118393171915,0.316,0.45,1,1,2,470,2
0.296454344863,0.242664871691,0.211867556931,1.12636144523,0.651,0.45,3,3,1,471,2
1.14163927287,0.279391087436,0.197638835117,0.0896885626305,0.546,0.45,0,0,1,472,2
0.315007638611,0.289450432872,1.12624383634,0.242592369147,0.424,0.45,2,2,2,473,2
1.17580437946,0.234468631493,0.229715116357,0.0927725559616,0.412,0.45,0,0,2,474,2
0.230399467978,0.162476122887,0.166560824172,1.1640387044,0.393,0.45,3,3,2,475,2
0.18510278738,0.321101087702,1.08986068376,0.0875512906824,0.455,0.45,2,2,1,476,2
0.203315419968,1.0003902452,0.197638238672,0.118164630781,0.387,0.45,1,1,2,477,2
1.18201010607,0.248124202123,0.211179275591,0.110854875746,0.316,0.45,0,0,2,478,2
0.236908770699,1.2641855678,0.188937044377,0.0415283918634,0.344,0.45,1,1,2,479,2
0.182350207281,0.196222938415,1.03049061548,-0.00131181753613,0.356,0.45,2,2,2,480,2
0.142670687463,0.172842035413,0.248837198863,1.10390991604,0.282,0.45,3,3,2,481,2
0.172233340182,1.00063454487,0.218572614746,0.0918132944897,0.26,0.45,1,1,2,482,2
1.14272939035,0.206157203333,0.19573316508,0.0933281458906,0.312,0.45,0,0,2,483,2
0.301501493313,0.176156271285,0.270002706637,1.09331224185,0.394,0.45,3,3,2,484,2
0.10248581915,1.02868218128,0.187477845999,0.152578982632,0.264,0.45,2,1,-1,485,2
0.20075256319,1.02714183714,0.259962647115,0.100499177493,0.322,0.45,0,1,-1,486,2
0.616564590385,0.0944405741036,1.08505033312,0.0529535947913,0.372,0.45,2,2,2,487,2
0.284077711339,0.145522684317,0.178403086768,1.11587348535,0.353,0.45,3,3,2,488,2
1.11952523669,0.257821558301,0.249055495762,0.103878572056,0.425,0.45,0,0,2,489,2
0.253801946411,1.15337739496,0.189398025276,0.0405354752626,0.396,0.45,1,1,2,490,2
0.21234874455,0.380726236447,0.247439835521,0.0498240479054,0.7,0.45,3,-1,0,492,2
0.56179482281,0.345155900641,0.218054979547,1.35852435408,0.694,0.45,1,3,-1,492,2
0.278523225784,0.261731374842,1.09371845667,0.0809003493063,0.557,0.45,2,2,1,493,2
0.412507037166,1.05751339719,0.238530744797,0.049637886509,0.537,0.45,1,1,1,494,2
0.41870452555,0.382907034709,0.240625228448,1.05312564471,0.45,0.45,3,3,1,495,2
1.07613484308,0.31935654409,0.209968572613,0.10770893621,0.437,0.45,0,0,2,496,2
0.400178942208,0.274420618559,1.02112999305,0.115780268226,0.35,0.45,2,2,2,497,2
0.315505989624,1.16202768806,0.18979911281,0.132710415498,0.374,0.45,0,1,-1,498,2
0.38093652916,0.12672067954,0.147129581853,1.17749827272,0.445,0.45,3,3,2,499,2
0.206052712938,0.150494053874,1.03059651984,0.115788166955,0.407,0.45,2,2,2,500,2
0.256310040448,1.25299668683,0.208144955877,0.139783054002,0.425,0.45,1,1,2,501,2
1.00629533533,0.214650814709,0.202568417659,0.146628645261,0.387,0.45,0,0,2,502,2
0.708071840574,1.04456269918,0.271300774072,0.15722563407,0.429,0.45,1,1,2,503,2
0.181584708608,0.256030980044,1.0251639176,0.139893667618,0.401,0.45,2,2,2,504,2
0.401981995257,0.270783666534,0.228639595717,1.0054759763,0.502,0.45,3,3,1,505,2
0.378838168974,1.0511318776,0.220401547194,0.091771483399,0.543,0.45,1,1,1,506,2
0.259515704927,0.188003337198,1.06848711024,0.0677250247514,0.496,0.45,2,2,1,507,2
0.122289448339,0.191420426793,0.175767130238,1.1753999065,0.376,0.45,3,3,2,508,2
1.07769623423,0.205355150477,0.221382066469,0.105596640214,0.418,0.45,0,0,2,509,2
0.198796592057,0.185525117974,0.270123935333,1.09024228515,0.37,0.45,3,3,2,510,2
0.0994111278259,0.510755857074,1.01967131352,0.0453872932542,0.401,0.45,2,2,2,511,2
1.12900759028,0.143835832517,0.157700013756,0.114252857369,0.432,0.45,0,0,2,512,2
0.261992474862,1.01649886497,0.176778367383,0.0797237757608,0.354,0.45,1,1,2,513,2
0.299387174716,0.174312870009,0.168647086251,1.046462018,0.418,0.45,3,3,2,514,2
0.0886050834652,1.01333232587,0.183765130588,0.0883119659446,0.342,0.45,1,1,2,515,2
1.13347178569,0.181870870516,0.196800152069,0.0822006319847,0.349,0.45,0,0,2,516,2
0.306652608085,0.299099096771,1.06310641846,0.0394936127954,0.372,0.45,2,2,2,517,2
0.121841334889,1.04735665733,0.138879194194,0.0751876239517,0.361,0.45,1,1,2,518,2
0.265950069914,0.196735737896,0.184086429166,1.0091877501,0.382,0.45,3,3,2,519,2
0.144584513866,0.19614633268,1.0316772008,0.0688594492294,0.402,0.45,2,2,2,520,2
1.0140757264,0.245029239142,0.17085793437,0.082711811592,0.398,0.45,0,0,2,521,2
0.208777536665,0.224588560124,1.03675407501,0.0486115434359,0.385,0.45,2,2,2,522,2
0.18228154554,0.184679380287,0.122131939557,1.01769837982,0.416,0.45,3,3,2,523,2
1.08327199491,0.34486789185,0.191627307817,0.109592031263,0.458,0.45,0,0,1,524,2
0.367050257316,0.143243969871,0.127820717079,1.00535497279,0.451,0.45,3,3,1,525,2
0.186435759209,1.04546079644,0.174001886595,0.0978677361165,0.358,0.45,1,1,2,526,2
1.07785309966,0.191831424914,0.177361116023,0.114787442158,0.369,0.45,0,0,2,527,2
0.162836560844,1.18181533328,0.183696368433,0.0823728873342,0.373,0.45,1,1,2,528,2
0.149300615992,0.204837163803,1.04820746421,0.0703384029757,0.351,0.45,2,2,2,529,2
0.571368200945,1.1824114486,0.195093470525,0.0950694677474,0.379,0.45,1,1,2,530,2
1.02639552908,0.227212524173,0.182053005926,0.087888542761,0.341,0.45,0,0,2,531,2
0.239552286435,0.123227477,0.187249266235,1.00984413859,0.445,0.45,3,3,2,532,2
0.259756439009,0.136371924216,1.03295303866,0.129126247097,0.437,0.45,2,2,2,533,2
0.199254963347,0.138512118074,0.165402410516,1.18661705249,0.411,0.45,3,3,2,534,2
1.0096619477,0.239901908664,0.199804481137,0.0361962553042,0.395,0.45,0,0,2,535,2
0.335275039016,0.261160167534,1.08920346301,0.00178349005067,0.336,0.45,2,2,2,536,2
1.15847242281,0.241621950517,0.182804842687,0.105041529147,0.385,0.45,0,0,2,537,2
0.201494947287,1.00642534863,0.181179638051,0.0789064195565,0.335,0.45,1,1,2,538,2
0.334625238252,0.24652138824,1.04452106296,0.0823568646597,0.374,0.45,2,2,2,539,2
0.126676347858,1.04185029845,0.19109103348,0.134617145201,0.388,0.45,1,1,2,540,2
0.247209217306,0.209507476968,0.171525285397,1.1011378383,0.359,0.45,3,3,2,541,2
0.085705379047,1.00567780085,0.217464069808,0.0658686471402,0.317,0.45,1,1,2,542,2
0.160681325035,0.23115783315,1.08713593204,0.0503705073141,0.39,0.45,2,2,2,543,2
0.144012501645,0.204271721825,0.147083387446,1.04413283668,0.392,0.45,3,3,2,544,2
1.03057965383,0.280086452017,0.220950816514,0.0735385447857,0.404,0.45,0,0,2,545,2
0.221606871913,0.148019641834,1.07809302239,0.0531308006732,0.386,0.45,2,2,2,546,2
1.04104601683,0.270445111929,0.250071913922,0.0866030347648,0.421,0.45,0,0,2,547,2
0.223283096293,0.18578504123,0.203712503041,1.19906878589,0.333,0.45,3,3,2,548,2
0.138111323792,0.274829744019,1.02474454343,0.0538866551762,0.428,0.45,2,2,2,549,2
0.0769070508984,1.0096228297,0.220063441839,0.125118814092,0.341,0.45,1,1,2,550,2
1.24468499048,0.36806472532,0.224627251227,0.0936617774471,0.347,0.45,0,0,2,551,2
0.246327677764,1.01814050917,0.203785880485,0.0969386913396,0.363,0.45,1,1,2,552,2
0.407580017726,0.23004042327,0.153981804584,1.00996239644,0.383,0.45,3,3,2,553,2
0.109540261106,1.04367901395,0.220428976226,0.0736975297415,0.303,0.45,1,1,2,554,2
0.236258056349,0.30349954294,1.03434847775,0.0794307161837,0.327,0.45,2,2,2,555,2
0.302443885382,0.189257972319,0.124169640151,1.03323743046,0.426,0.45,3,3,2,556,2
1.05266660704,0.280302810133,0.181405815575,0.0738003442388,0.356,0.45,0,0,2,557,2
0.229470608491,0.161835903408,0.242237848176,1.00662893877,0.387,0.45,3,3,2,558,2
0.107131429315,0.254040673499,1.02783570229,0.118057119881,0.341,0.45,2,2,2,559,2
1.06856524664,0.297126287266,0.290605578656,0.180554747968,0.393,0.45,0,0,2,560,2
0.23753850989,1.02226854506,0.303155424537,0.101654996899,0.314,0.45,1,1,2,561,2
1.09549964633,0.35629237313,0.311747049167,0.0845967040273,0.404,0.45,0,0,2,562,2
0.334630801063,0.414762059258,1.05619041386,0.138195530505,0.406,0.45,2,2,2,563,2
0.119907869818,1.05689742576,0.241329247194,0.112742979109,0.357,0.45,1,1,2,564,2
0.273369936606,0.298551978343,0.256611732696,1.09690026616,0.414,0.45,3,3,2,565,2
0.0706878549036,1.08975974347,0.229392746693,0.0835473550128,0.357,0.45,1,1,2,566,2
1.05477982176,0.267230689905,0.238189118472,0.1074047194,0.391,0.45,0,0,2,567,2
0.2550652525,0.314862911187,1.00444678299,0.0503379969549,0.349,0.45,2,2,2,568,2
0.178155851059,0.193275148205,0.159061284623,1.0285603742,0.359,0.45,3,3,2,569,2
0.151472809138,0.242420391733,1.03414035611,0.689818813462,0.479,0.45,2,2,1,570,2
1.0667844456,0.311604005093,0.202796188173,0.138248752857,0.438,0.45,0,0,2,571,2
0.214413151336,0.140249207789,0.338660284517,1.01367392267,0.426,0.45,3,3,2,572,2
0.116023748361,1.09752499332,0.206279362314,0.0618279699041,0.379,0.45,1,1,2,573,2
0.239652007757,0.140401948218,0.132996467799,1.00069110663,0.445,0.45,3,3,2,574,2
1.21772623448,0.239630096187,0.137589916147,0.0456396307414,0.337,0.45,0,0,2,575,2
0.243558540121,1.01503438051,0.361611569291,0.0387489093119,0.342,0.45,1,1,2,576,2
0.220802849022,0.232527932053,1.09338943478,0.100676578779,0.362,0.45,2,2,2,577,2
0.160753255107,1.10676522224,0.158434173678,0.0956023168864,0.411,0.45,1,1,2,578,2
0.122246312004,0.137052564881,0.179619355006,1.03669128786,0.366,0.45,3,3,2,579,2
0.193910728453,0.22988913757,1.15551157168,0.136466351984,0.443,0.45,2,2,2,580,2
1.21955975133,0.263539919201,0.208664562864,0.0729553708084,0.378,0.45,0,0,2,581,2
0.254007148375,0.430691945756,1.1025690826,0.0130120019454,0.371,0.45,2,2,2,582,2
0.158395946396,0.122042620851,0.167059478162,1.01168912255,0.437,0.45,3,3,2,583,2
1.00962130848,0.214141719774,0.200146653516,0.0266790419742,0.417,0.45,0,0,2,584,2
0.207431313817,0.153455680066,0.195095129623,1.09178041851,0.43,0.45,3,3,2,585,2
0.111903326967,1.04993561998,0.180332711089,0.0359561696528,0.366,0.45,1,1,2,586,2
0.129593585976,0.145359636149,1.08880674528,0.0544754925171,0.346,0.45,2,2,2,587,2
0.122954467999,1.12663341764,0.249940573057,0.0812345990979,0.424,0.45,1,1,2,588,2
1.14558802463,0.133167305839,0.150655930972,0.0552600551812,0.356,0.45,0,0,2,589,2
0.194579792325,1.13866625405,0.36195570281,0.0241481378581,0.409,0.45,1,1,2,590,2
0.189129371106,0.318650351536,0.189024114332,0.17876905318,0.7,0.45,3,-1,0,592,2
0.131559355289,0.200296812071,0.15138800883,1.02651238709,0.131,0.45,2,3,-1,592,2
1.08719129724,0.231119168847,0.088298297427,0.0194261483322,0.474,0.45,0,0,1,593,2
0.276259132446,0.249334473682,1.08886222843,-0.0503002838956,0.346,0.45,2,2,2,594,2
0.332290512274,0.277071084863,0.164537079765,1.05514136778,0.481,0.45,3,3,1,595,2
1.00084152507,0.49134881998,0.299862400013,0.087549725465,0.504,0.45,0,0,1,596,2
0.289307665068,1.22484932979,0.194089465597,0.0149898404396,0.346,0.45,1,1,2,597,2
0.432150837056,0.280388320837,1.02556189577,0.0953388004895,0.348,0.45,2,2,2,598,2
1.19791477165,0.304170637172,0.227970451797,0.0525599658149,0.325,0.45,1,0,-1,599,2
1.08401688488,0.217121070565,0.23080279284,0.00146726202122,0.428,0.45,0,0,2,600,2
0.217945623728,0.263640086446,0.179953708539,1.05559246714,0.406,0.45,3,3,2,601,2
0.113945252112,1.04099923819,0.183526945265,0.0589414981335,0.324,0.45,1,1,2,602,2
1.06298830361,0.356630488803,0.206730418352,0.0496821233243,0.327,0.45,0,0,2,603,2
0.19548297251,0.195837272944,0.157050244435,1.05245553644,0.325,0.45,3,3,2,604,2
0.127643401029,0.261255921947,1.00334282903,-0.0228628853031,0.365,0.45,2,2,2,605,2
1.08420879124,0.278954981664,0.132921134683,0.0128708839649,0.388,0.45,0,0,2,606,2
0.250419167683,0.266724998744,1.04964971286,0.0326226487256,0.38,0.45,2,2,2,607,2
0.227790921731,0.16510616981,0.088151807922,1.00301043846,0.436,0.45,3,3,2,608,2
1.08473758094,0.391728021511,0.162090801522,0.0436621441476,0.418,0.45,0,0,2,609,2
0.199184411224,1.05386266953,0.148895115746,0.0225450883708,0.405,0.45,1,1,2,610,2
0.158536595836,0.199145928143,1.09091541649,0.0198949842231,0.385,0.45,2,2,2,611,2
0.108741545806,1.13921663076,0.159163931621,0.0392237553257,0.365,0.45,1,1,2,612,2
0.137539740709,0.139890910841,0.125475455189,1.08470089175,0.377,0.45,3,3,2,613,2
0.116103093021,1.09292298116,0.20082899188,0.0214605351031,0.358,0.45,1,1,2,614,2
0.222612791894,0.397996210827,1.09654931897,0.0198054775238,0.327,0.45,2,2,2,615,2
1.02120648003,0.408920740155,0.258489316374,0.0489108629923,0.365,0.45,0,0,2,616,2
0.240121444541,0.278502362973,0.193605386197,1.0322096978,0.406,0.45,3,3,2,617,2
1.07732098553,0.378534899658,0.283570982857,0.122421822874,0.427,0.45,0,0,2,618,2
0.2112315385,0.365574375633,1.02555382437,0.0206275930149,0.355,0.45,2,2,2,619,2
0.187354036404,0.407993199558,0.262996658265,0.123224248599,0.7,0.45,3,-1,0,621,2
0.108724371922,1.05349561288,0.243078532296,0.0175456935039,0.424,0.45,1,1,2,621,2
0.471306384507,0.223627133691,0.140227791257,1.03569105747,0.407,0.45,3,3,2,622,2
0.146505559604,0.235165509061,1.11264417784,0.0151566417275,0.394,0.45,2,2,2,623,2
0.084226563553,1.0701090557,0.190696737636,0.0765357126269,0.362,0.45,1,1,2,624,2
1.07179236748,0.198098122389,0.202097465696,0.0920192825879,0.334,0.45,0,0,2,625,2
0.145230883178,1.09992711802,0.180059170693,0.079470103546,0.36,0.45,1,1,2,626,2
0.131171098099,0.270736159361,1.04553480193,0.104781865937,0.412,0.45,2,2,2,627,2
1.21496229492,0.306950230888,0.248420497905,0.13500068008,0.389,0.45,0,0,2,628,2
0.195869637596,0.202929770909,0.193749689458,1.11832745418,0.37,0.45,3,3,2,629,2
1.059165262,0.287928370445,0.22880545877,0.078893869027,0.391,0.45,0,0,2,630,2
0.224066358086,0.322547447265,1.10717587364,0.0491304494896,0.342,0.45,2,2,2,631,2
0.0771474758532,0.206739715685,0.106598195053,1.00636607463,0.4,0.45,3,3,2,632,2
0.0953230031851,1.16370679342,0.152192398831,0.0695780345384,0.337,0.45,1,1,2,633,2
1.06528271829,0.183553637005,0.618275206892,0.093811238859,0.379,0.45,0,0,2,634,2
0.170913343942,1.04566495177,0.100759541022,0.0666988318527,0.412,0.45,1,1,2,635,2
0.123847083138,0.142652400592,0.155393679037,1.20413399646,0.378,0.45,3,3,2,636,2
0.108223707781,0.270382632358,1.07296091209,0.126966525991,0.338,0.45,2,2,2,637,2
0.0983622842492,1.072113776,0.149068919034,0.0906948673151,0.336,0.45,1,1,2,638,2
1.00210136494,0.219350219961,0.176719310436,0.0625601904096,0.319,0.45,0,0,2,639,2
0.179552770825,0.219968122334,1.07447586614,-0.00434218764051,0.342,0.45,2,2,2,640,2
0.228084517047,0.226709830313,0.11712979033,1.02728429171,0.666,0.45,3,3,1,641,2
0.0809579233143,0.273028880592,1.0301026833,0.0762500074379,0.618,0.45,2,2,1,642,2
1.1547442229,0.206852193972,0.21745649924,0.117596349854,0.453,0.45,0,0,1,643,2
0.27093211953,0.185759783182,0.93261297463,1.08533614379,0.385,0.45,3,3,2,644,2
0.123401757124,1.07220198407,0.122042215062,0.13125594962,0.333,0.45,1,1,2,645,2
0.133493386937,0.19306319329,1.02695120233,0.13566433228,0.349,0.45,2,2,2,646,2
0.0869216106254,1.11998935633,0.126830647177,0.103300218335,0.348,0.45,1,1,2,647,2
0.108089717196,0.244451973577,0.259162153467,0.314910322546,0.7,0.45,3,-1,0,649,2
1.03252494455,0.256272898488,0.215587510369,0.127425744589,0.443,0.45,0,0,2,649,2
0.28245158542,1.01655608395,0.225340487363,0.0613664295643,0.413,0.45,1,1,2,650,2
1.34401786846,0.18869217904,0.124178240388,0.0527893614639,0.564,0.45,0,0,1,651,3
0.320850882767,0.289859641804,0.148371837601,1.12554141254,0.424,0.45,3,3,2,652,3
0.218586408839,0.147640101783,1.01802523158,0.0444822930986,0.352,0.45,2,2,2,653,3
0.406018037575,1.32860131657,0.260622571877,0.0113420166274,0.318,0.45,1,1,2,654,3
0.210459896479,0.226165065163,1.15629316043,0.0787363859617,0.364,0.45,2,2,2,655,3
0.246145762623,0.383954006482,0.171070141433,1.00670193636,0.384,0.45,3,3,2,656,3
0.093424384675,1.18859656609,0.215529147527,0.0532079527203,0.283,0.45,1,1,2,657,3
0.359564921084,0.302211543997,0.718441418916,1.31631601648,0.359,0.45,3,3,2,658,3
1.24447525757,0.280415521849,0.270791485161,0.119504403341,0.353,0.45,0,0,2,659,3
0.193231028909,0.292110168664,1.18555397354,0.168553357149,0.407,0.45,2,2,2,660,3
1.1469701375,0.359008763123,0.228825598535,0.120549407192,0.314,0.45,0,0,2,661,3
0.252544234072,1.14853476101,0.243349364818,0.0248608611476,0.273,0.45,1,1,2,662,3
1.15694923829,0.333900651276,0.290422938515,0.0746814989322,0.39,0.45,0,0,2,663,3
0.159387198869,1.11834231749,0.3045890292,0.0534916250034,0.355,0.45,1,1,2,664,3
0.231810395593,0.137845853224,1.13983674248,0.0635952082818,0.386,0.45,2,2,2,665,3
0.225301331085,0.388503037863,0.307303962994,1.12405660258,0.349,0.45,3,3,2,666,3
0.102514420201,0.11685805412,1.12200315299,0.174059418186,0.396,0.45,2,2,2,667,3
0.162375012779,1.09327055449,0.371403818387,0.163804658764,0.298,0.45,1,1,2,668,3
0.173247891316,0.345570276256,0.293355863564,1.17105099107,0.366,0.45,3,3,2,669,3
1.14182654976,0.361045330552,0.245347646051,0.0863490775523,0.361,0.45,0,0,2,670,3
0.185159813607,0.258437150037,0.28050945239,1.16820523937,0.361,0.45,3,3,2,671,3
0.167446103005,1.0192474902,0.297702910273,0.13476150855,0.294,0.45,1,1,2,672,3
1.08921753559,0.340846877184,0.28204938923,0.0936261075311,0.335,0.45,0,0,2,673,3
0.204772556812,0.347973854205,1.09521624284,0.113208088799,0.327,0.45,2,2,2,674,3
1.05861723089,0.348673973414,0.175533697508,0.0704548278452,0.386,0.45,0,0,2,675,3
0.120404674268,0.24923157882,1.13677947487,0.336093240868,0.402,0.45,2,2,2,676,3
0.186991373074,0.268500571707,0.171769160768,1.04843382026,0.583,0.45,3,3,1,677,3
0.198758297128,1.09111014929,0.196000293086,0.0876341686169,0.449,0.45,1,1,2,678,3
0.25226848797,0.193918610654,0.218045377175,1.03142877461,0.458,0.45,3,3,1,679,3
0.114372284152,0.307221458638,1.03062766034,0.190120758689,0.422,0.45,2,2,2,680,3
0.135575688251,1.04403756797,0.137932240312,0.0998545429746,0.349,0.45,1,1,2,681,3
1.06072707154,0.206099709547,0.189690966543,0.0476665695137,0.312,0.45,0,0,2,682,3
0.126997121392,1.08819736936,0.209752785267,0.0481175089527,0.363,0.45,1,1,2,683,3
0.161948499387,0.298293273924,1.07813096846,0.0328573492146,0.37,0.45,2,2,2,684,3
1.05616766442,0.453201484399,0.28120025676,0.199575679511,0.418,0.45,0,0,2,685,3
0.16081564018,0.270319316708,0.209128012325,1.09642516974,0.371,0.45,3,3,2,686,3
1.04613720501,0.331515928465,0.25431698744,0.1567725324,0.368,0.45,0,0,2,687,3
0.192967415063,0.254678157598,0.218943624621,1.14338466043,0.369,0.45,3,3,2,688,3
0.117652120181,0.214058544004,1.08451947951,0.164594725405,0.372,0.45,2,2,2,689,3
0.131655899483,1.21048487314,0.196058639917,0.119044456375,0.316,0.45,1,1,2,690,3
0.128263478692,0.221289719589,1.11884321712,0.0820193207691,0.385,0.45,2,2,2,691,3
0.0772463041007,0.168227695983,0.130627514194,1.0509664274,0.375,0.45,3,3,2,692,3
0.12657484807,1.20254651059,0.194628941486,0.100126908274,0.293,0.45,1,1,2,693,3
1.22142215343,0.295702660049,0.223708713889,0.131660738296,0.349,0.45,0,0,2,694,3
0.177804807776,0.287709663432,1.1016223137,0.0916488586428,0.312,0.45,2,2,2,695,3
1.15880532784,0.318084047526,0.212047466614,0.0818451248846,0.4,0.45,0,0,2,696,3
0.125812069743,1.07982426032,0.183251004676,0.0624425127997,0.449,0.45,1,1,2,697,3
0.148443849237,0.206013926685,0.19320718592,1.24228967733,0.348,0.45,3,3,2,698,3
1.12506963567,0.241715233761,0.224189024312,0.0686719643058,0.37,0.45,0,0,2,699,3
0.1547794659,0.302337636065,1.08100977745,0.139748116256,0.276,0.45,2,2,2,700,3
0.088353599568,0.165508919155,0.192894349012,1.00177803038,0.259,0.45,1,3,-1,701,3
0.196919871642,0.215787137533,0.850409716289,1.16154428914,0.527,0.45,3,3,1,702,3
0.268663286429,1.17507155239,0.144421139989,0.0193634886438,0.452,0.45,1,1,1,703,3
0.096035677357,0.19106890821,1.04332869605,0.0186368238092,0.361,0.45,2,2,2,704,3
0.0730878998377,0.108973302541,0.135817344574,1.1314034155,0.404,0.45,3,3,2,705,3
0.0585072763188,0.160391105675,1.12842897027,0.0626233670389,0.48,0.45,2,2,1,706,3
1.25697878853,0.304597848667,0.173824045768,0.0623248693269,0.376,0.45,0,0,2,707,3
0.0774253402477,0.136261827847,0.155723763683,1.00396668881,0.333,0.45,3,3,2,708,3
1.07921509744,0.27662323929,0.199213988933,0.0420045724878,0.383,0.45,0,0,2,709,3
0.098408902606,1.11487867332,0.167893707028,0.00868104094205,0.517,0.45,1,1,1,710,3
1.21022338374,0.21792064008,0.186914345349,0.0650369342934,0.548,0.45,0,0,1,711,3
0.111430453965,1.17703047415,0.178270184678,0.0402170595177,0.446,0.45,1,1,2,712,3
0.11667525537,0.123263135962,0.221893761426,1.05565404197,0.387,0.45,3,3,2,713,3
0.0640054291395,0.205214083355,1.18655886384,0.0228645361086,0.359,0.45,2,2,2,714,3
0.0778508478879,1.16234286549,0.147061655395,0.0258759520395,0.327,0.45,1,1,2,715,3
0.11734458169,0.220584538036,1.16453612227,0.0335481166231,0.333,0.45,2,2,2,716,3
0.0747486238616,0.196285850146,0.155693304019,1.06700022577,0.362,0.45,3,3,2,717,3
1.07209612776,0.285138500709,0.214265955102,0.0068390174523,0.332,0.45,0,0,2,718,3
0.12449233874,0.216862639969,0.196916049402,1.12601870822,0.364,0.45,3,3,2,719,3
0.097621766984,1.29246791704,0.202316339006,0.0407445775471,0.312,0.45,1,1,2,720,3
1.24792706956,0.19314383956,0.169788152205,0.0183358274036,0.328,0.45,0,0,2,721,3
0.114250852431,0.181742349144,1.0751233821,-0.0262266250254,0.359,0.45,2,2,2,722,3
1.08680775687,0.215869744205,0.164712726806,0.0224495457324,0.403,0.45,0,0,2,723,3
0.176600848699,1.13475327043,0.168611066084,0.0218439731433,0.346,0.45,1,1,2,724,3
0.170484394437,0.388761708528,1.15833487945,0.00547923495371,0.447,0.45,2,2,2,725,3
0.143072558935,0.108876093565,0.0905119348945,1.01783482003,0.473,0.45,3,3,1,726,3
0.143528097968,1.0261230242,0.12378275977,-0.0584102274902,0.428,0.45,1,1,2,727,3
0.427377446839,0.212628690307,1.07931920699,0.0605892774329,0.39,0.45,3,2,-1,728,3
0.10398576135,0.15994421395,1.00674271727,0.150981260044,0.454,0.45,2,2,1,729,3
1.16875760435,0.224825770337,0.116224275442,0.0286805323135,0.404,0.45,0,0,2,730,3
0.0311290191044,0.0949871286022,0.163544027712,1.22776140096,0.372,0.45,3,3,2,731,3
1.25248742068,0.274843435656,0.136016324285,0.00125488241298,0.367,0.45,0,0,2,732,3
0.159535765044,0.124107901825,1.19249028817,0.0412549212261,0.392,0.45,2,2,2,733,3
0.114123641149,1.03482602851,0.190344092847,0.025526365068,0.314,0.45,1,1,2,734,3
1.20747488387,0.292583826931,0.208111573887,0.0668679515149,0.339,0.45,0,0,2,735,3
0.64890411215,1.029162785,0.256664111585,0.0721132262615,0.464,0.45,1,1,1,736,3
0.0778720969222,0.304495247602,0.226117127251,1.16810085133,0.434,0.45,3,3,2,737,3
0.143707741095,0.386976377048,1.0995552901,0.141580506416,0.344,0.45,2,2,2,738,3
0.065401941001,1.09109512482,0.219791394438,0.152015776762,0.349,0.45,1,1,2,739,3
0.127997830604,0.286273768738,1.16096950606,0.167997884243,0.347,0.45,2,2,2,740,3
0.102572951243,0.268697043422,0.193648506986,1.20154116002,0.37,0.45,3,3,2,741,3
1.07272653094,0.350614330935,0.2663433149,0.164365515571,0.382,0.45,0,0,2,742,3
0.151188552638,0.321332395473,1.10262713254,0.146210607327,0.34,0.45,2,2,2,743,3
1.0459524014,0.33646002941,0.199982309381,0.165380865061,0.332,0.45,0,0,2,744,3
0.227318513339,0.304851132395,0.202257638603,1.08933676156,0.325,0.45,3,3,2,745,3
0.176082584935,1.04008717647,0.240163805895,0.121884940248,0.264,0.45,1,1,2,746,3
1.18119245631,0.250905271043,0.177642896477,0.0788335183907,0.373,0.45,0,0,2,747,3
0.153544978107,1.02160476151,0.176300845154,0.0923009344496,0.41,0.45,1,1,2,748,3
0.179849793739,0.275613098199,0.18823692403,1.07858182734,0.376,0.45,3,3,2,749,3
0.160043235355,0.373448634166,1.03823612652,0.163410572111,0.333,0.45,2,2,2,750,3
0.14471088058,0.252928680551,0.177001660393,1.04535881614,0.38,0.45,3,3,2,751,3
0.152457092815,1.10739127839,0.257354413392,0.0859661868449,0.314,0.45,1,1,2,752,3
0.228794678142,0.365919583823,1.04997439436,0.108652912029,0.33,0.45,2,2,2,753,3
1.0373291178,0.390190461964,0.234998558791,0.093218462295,0.336,0.45,0,0,2,754,3
0.195929126183,0.30725947875,1.00529193149,0.0874003999701,0.322,0.45,2,2,2,755,3
0.229857843341,1.19490924466,0.240301733027,0.0725153405981,0.332,0.45,1,1,2,756,3
1.00324459404,0.436749987097,0.266845631505,0.101863949961,0.412,0.45,0,0,2,757,3
0.193756083024,0.283295562971,0.722393798232,1.07461038139,0.422,0.45,3,3,2,758,3
1.10758600862,0.438018295803,0.223774736352,0.130078334706,0.424,0.45,0,0,2,759,3
0.209376913033,0.176588070906,0.890137429948,1.0788924799,0.38,0.45,3,3,2,760,3
0.109643110071,0.108711538792,1.06724448535,0.475270885988,0.407,0.45,2,2,2,761,3
0.247306878137,1.12161085438,0.237632286596,0.0614035573396,0.349,0.45,1,1,2,762,3
0.248225904752,0.340312917538,1.18027142125,0.0685738814752,0.367,0.45,2,2,2,763,3
0.21268101541,0.249262182805,0.181516941526,1.04338776428,0.394,0.45,3,3,2,764,3
0.205583304428,1.08966991847,0.187895046689,0.0460626568631,0.331,0.45,1,1,2,765,3
0.142659638611,0.271231913161,1.10014138243,0.0584311473268,0.255,0.45,3,2,-1,766,3
1.09564876244,0.362178170761,0.24057051999,0.0958067934102,0.363,0.45,0,0,2,767,3
1.12011443423,0.334718631647,0.229584003506,0.0855560055569,0.384,0.45,1,0,-1,768,3
1.14810453652,0.423923050849,0.236639137209,0.0607529901483,0.445,0.45,0,0,2,769,3
0.0908343320216,0.287650287447,1.12039961861,0.0262675150856,0.407,0.45,2,2,2,770,3
1.16894565818,0.325478350751,0.204607227329,0.0683835041209,0.397,0.45,0,0,2,771,3
0.249052115601,0.33549430084,1.03042694578,0.0694549906373,0.422,0.45,2,2,2,772,3
0.123510467083,0.257386086941,0.193418015024,1.07465086887,0.409,0.45,3,3,2,773,3
0.10747036249,1.01016931653,0.190824037821,0.0712363035859,0.352,0.45,1,1,2,774,3
0.204599567416,0.242694718496,0.229814582749,1.04582437135,0.449,0.45,3,3,2,775,3
0.122557640258,0.258121162612,1.05888244947,0.0973413054856,0.399,0.45,2,2,2,776,3
0.0943230212325,1.08751591882,0.177088403429,0.0922618474706,0.372,0.45,1,1,2,777,3
1.01656974134,0.293677829895,0.213131633198,0.124710727886,0.357,0.45,0,0,2,778,3
0.154224993984,1.07635674645,0.236111300357,0.0989509313104,0.39,0.45,1,1,2,779,3
0.164667286438,0.309816114822,1.04477488632,0.114137944673,0.325,0.45,2,2,2,780,3
1.07220639559,0.400690828362,0.318119336537,0.183230076026,0.388,0.45,0,0,2,781,3
0.124049611271,0.338834459145,0.289569363138,1.02887913266,0.373,0.45,3,3,2,782,3
1.03359258406,0.530997687384,0.213607756473,0.106039774795,0.377,0.45,0,0,2,783,3
0.196100208469,0.213187050294,0.27552507423,1.09620624819,0.369,0.45,3,3,2,784,3
0.137437135567,0.200490294705,1.01292823183,0.0906866373557,0.396,0.45,2,2,2,785,3
0.162469196944,1.16115519697,0.154467966,0.150139133171,0.333,0.45,1,1,2,786,3
0.162289597589,0.213366054511,1.0608028984,0.15379419409,0.349,0.45,2,2,2,787,3
0.124831067616,0.152779306915,0.120741939604,1.06947231787,0.407,0.45,3,3,2,788,3
0.126753417276,1.1293129441,0.201840175074,0.113715363519,0.384,0.45,1,1,2,789,3
1.01667713967,0.262819658814,0.191111918449,0.17248305167,0.318,0.45,0,0,2,790,3
0.192071645663,1.13154283079,0.484729177065,0.154405908445,0.42,0.45,1,1,2,791,3
0.107455859147,0.172291144041,0.233536708184,1.00291599428,0.419,0.45,3,3,2,792,3
1.01458704832,0.251827555945,0.157353383328,0.130354929408,0.391,0.45,0,0,2,793,3
0.159222115247,0.241703474828,1.07833392516,0.116590856158,0.28,0.45,2,2,2,794,3
0.116678403907,1.03584626694,0.138410612761,0.0636164472068,0.338,0.45,0,1,-1,795,3
0.387178981925,1.18119506741,0.140731434994,0.0779403894768,0.429,0.45,1,1,2,796,3
0.2087990322,1.13059509084,0.72863525975,0.136184031814,0.474,0.45,2,1,-1,797,3
0.107696610603,0.104992512093,0.244058388029,1.04461371618,0.475,0.45,3,3,1,798,3
0.0946652392759,1.01950340154,0.220781221277,0.0977933198641,0.416,0.45,1,1,2,799,3
0.128328679923,0.0810785953117,0.228499851708,1.04899605645,0.392,0.45,3,3,2,800,3
0.0649502128794,0.143948197126,1.01421213344,0.266408639724,0.378,0.45,2,2,2,801,3
0.114891245896,1.01375277389,0.142375858222,0.0459730568387,0.373,0.45,1,1,2,802,3
1.06794742665,0.227635765834,0.204291806931,0.143733656544,0.314,0.45,0,0,2,803,3
0.162757735842,0.187960717048,0.167685312712,1.01793431127,0.373,0.45,3,3,2,804,3
1.05470437996,0.234499969076,0.174003945041,0.110828767923,0.379,0.45,0,0,2,805,3
0.153596230242,0.190234393189,1.02054498705,0.0737677003737,0.3,0.45,2,2,2,806,3
0.166689915461,1.00569028551,0.132884836257,0.0794128463886,0.402,0.45,0,1,-1,807,3
0.13352672935,1.05954111084,0.145203357098,0.104953817706,0.442,0.45,1,1,2,808,3
0.162135122755,0.192659169853,1.08354517438,0.161226066133,0.392,0.45,2,2,2,809,3
0.149728085419,0.183186521044,0.187705035827,1.00333596366,0.356,0.45,3,3,2,810,3
0.108317354044,0.19076902152,1.02665245813,0.135463501946,0.349,0.45,2,2,2,811,3
0.0995922888342,1.15668089366,0.156569871565,0.0900947923448,0.306,0.45,1,1,2,812,3
0.0974676230599,0.103287187309,0.143812550764,1.07197405608,0.379,0.45,3,3,2,813,3
1.08268271106,0.211389084718,0.231428750655,0.0792156697038,0.327,0.45,0,0,2,814,3
0.163844975653,0.229943257003,1.0861385171,0.153396780837,0.306,0.45,3,2,-1,815,3
0.153749371875,1.07723391463,0.259529232966,0.153587341371,0.34,0.45,1,1,2,816,3
1.1341973014,0.297655515386,0.276193445103,0.123109263171,0.376,0.45,0,0,2,817,3
0.182405740128,0.28830863794,1.06833719662,0.0942406668928,0.338,0.45,2,2,2,818,3
1.15788746195,0.281348514803,0.246382185189,0.128418680106,0.389,0.45,0,0,2,819,3
0.140960936474,0.125988361362,1.10887583806,0.132243504103,0.389,0.45,2,2,2,820,3
0.0938043903401,1.00139948463,0.223669836845,0.116912490132,0.388,0.45,1,1,2,821,3
0.157437806173,0.124310133262,0.178034255643,1.01154900261,0.428,0.45,3,3,2,822,3
0.109548872607,0.225331125579,1.18283176371,0.0965761816596,0.427,0.45,2,2,2,823,3
0.123723248244,0.179576271638,0.16806415343,1.02365056672,0.461,0.45,3,3,1,824,3
0.0810545338511,1.0323717173,0.203717231148,0.05194315589,0.335,0.45,1,1,2,825,3
1.12607574927,0.233052933316,0.2072819992,0.0759896160421,0.369,0.45,0,0,2,826,3
0.154506007769,0.149804485622,0.150081241386,1.01525531859,0.428,0.45,3,3,2,827,3
1.03156301938,0.223881576432,0.196329653186,0.0980218263509,0.413,0.45,0,0,2,828,3
0.164630834075,1.06275852881,0.205375861611,0.0681867100496,0.475,0.45,1,1,1,829,3
0.139840883446,0.160183442225,1.06583734689,0.0534119865158,0.41,0.45,2,2,2,830,3
1.00005758137,0.218168187847,0.163800596503,0.0535785484277,0.393,0.45,0,0,2,831,3
0.145176457194,1.00240745255,0.204119641811,0.0350205720982,0.443,0.45,1,1,2,832,3
0.155079655665,0.187117733213,1.11514730338,0.0742605032574,0.407,0.45,2,2,2,833,3
0.135905142388,0.159023828536,0.147823542317,1.05623291224,0.397,0.45,3,3,2,834,3
0.097526414079,1.02578178809,0.183831009749,0.108798488801,0.405,0.45,1,1,2,835,3
0.190506918671,0.154692329546,0.137025964211,1.03752947357,0.402,0.45,3,3,2,836,3
0.0829819380601,0.152715381212,1.02425319025,0.0692945973053,0.373,0.45,2,2,2,837,3
0.199421167735,1.02813533025,0.157116057386,0.0580787944599,0.36,0.45,1,1,2,838,3
1.00814166358,0.234286818426,0.204870606835,0.0735721828128,0.376,0.45,0,0,2,839,3
0.141511768987,1.01031986565,0.268840372023,0.096335358614,0.316,0.45,2,1,-1,840,3
1.07089685328,0.416647331472,0.203752570418,0.0580955232809,0.424,0.45,0,0,2,841,3
0.152813784701,0.117583827726,0.120158933834,1.00500061294,0.392,0.45,3,3,2,842,3
0.0835069920994,1.00935874944,0.180013976225,0.0477250287901,0.335,0.45,0,1,-1,843,3
0.25744619336,0.0867099366083,0.179780988881,1.01309815882,0.418,0.45,3,3,2,844,3
0.102747288687,1.00008447216,0.538925679736,0.0342092838992,0.546,0.45,1,1,1,845,3
0.217829443573,0.179802251671,1.07328834151,0.103711558079,0.469,0.45,2,2,1,846,3
0.210609121479,0.218946477797,0.148888039221,1.02085024459,0.406,0.45,3,3,2,847,3
0.277893459129,0.280693538296,1.02690897823,0.0232639676754,0.417,0.45,2,2,2,848,3
0.260005130807,1.01933954636,0.115346560899,-0.0735007071526,0.353,0.45,1,1,2,849,3
1.10457141665,0.30545585452,0.254538686034,0.0503370722531,0.357,0.45,0,0,2,850,3
0.282019158015,1.04618434221,0.260779707782,-0.00252011971077,0.411,0.45,1,1,2,851,3
0.230413445231,0.262472577123,0.222124880722,1.02650344517,0.393,0.45,3,3,2,852,3
1.03193204931,0.26604049654,0.251126908164,0.0315230151089,0.378,0.45,0,0,2,853,3
0.293476547693,0.304501397912,1.111478524,-0.00283611283602,0.339,0.45,2,2,2,854,3
1.07445671035,0.269885167117,0.184313020042,0.0812049303094,0.416,0.45,0,0,2,855,3
0.293489515255,0.203665251389,0.176000280014,1.050942279,0.408,0.45,3,3,2,856,3
0.125348331684,0.229556247523,1.08224045695,0.038579150911,0.467,0.45,2,2,1,857,3
0.083784748079,1.14249313216,0.134617924404,0.00707419883708,0.427,0.45,1,1,2,858,3
0.184768365716,0.178748534672,1.0104718624,0.0943258949682,0.368,0.45,3,2,-1,859,3
0.0674864451379,1.00484316462,0.124113891095,0.049554930324,0.456,0.45,1,1,1,860,3
0.146979662981,0.172902960298,1.18774856134,0.102122455979,0.392,0.45,2,2,2,861,3
0.0969202389776,0.189341021893,0.125732556874,1.01391260857,0.382,0.45,3,3,2,862,3
1.05201054436,0.234445589819,0.201961987115,0.0702190643491,0.378,0.45,0,0,2,863,3
0.154723591165,1.10310503863,0.195961317463,0.0736597355542,0.352,0.45,1,1,2,864,3
1.03093274292,0.265403582653,0.207376399069,0.160582354237,0.419,0.45,0,0,2,865,3
0.123840564326,0.201033463661,1.08015536371,0.135568736028,0.394,0.45,2,2,2,866,3
1.04213226229,0.253425543855,0.132825358683,0.123493525317,0.444,0.45,0,0,2,867,3
0.664974589329,0.438896129071,1.02302926137,0.00754728724359,0.525,0.45,1,2,-1,868,4
1.02880742895,0.404166833145,0.160039605877,0.03708332501,0.476,0.45,0,0,1,869,4
0.202794608257,0.359429275416,1.11434461486,-0.0720303598844,0.365,0.45,2,2,2,870,4
0.2756493269,0.305613403853,0.221514510322,1.19351624999,0.403,0.45,3,3,2,871,4
0.126065132045,0.229264006823,1.08754550745,0.0709689018805,0.383,0.45,2,2,2,872,4
1.02744011972,0.306718960844,0.19164779053,0.0304922017355,0.377,0.45,0,0,2,873,4
0.238281690051,0.208397591814,0.193978759176,1.11850361931,0.387,0.45,3,3,2,874,4
1.09910070388,0.291167882426,0.231135988169,0.0309993540207,0.391,0.45,0,0,2,875,4
0.41192099534,1.23391693935,0.244495993509,0.0319099589735,0.4,0.45,1,1,2,876,4
0.310505168227,0.225160082915,0.195266170143,1.04491548415,0.437,0.45,3,3,2,877,4
0.0461428513965,1.11243808503,0.230688150083,0.106899110347,0.373,0.45,1,1,2,878,4
0.229489354988,0.321187159805,1.08625047239,0.104302738386,0.321,0.45,2,2,2,879,4
0.0695000092037,1.01808013046,0.234083815047,0.15606972588,0.347,0.45,1,1,2,880,4
0.102641200293,0.165271653406,0.190979593873,1.00560535522,0.387,0.45,3,3,2,881,4
1.04633720281,0.296396745005,0.168902554816,0.0677239066388,0.392,0.45,0,0,2,882,4
0.12551057819,0.198760284086,1.04056879139,0.0580599236675,0.372,0.45,2,2,2,883,4
1.01785943583,0.271589715389,0.125315334998,0.108210305136,0.396,0.45,0,0,2,884,4
0.169103926431,0.148273610566,0.0868959382145,0.92120921524,0.7,0.45,3,-1,0,886,4
0.167582503538,0.144583587053,0.0842362109786,1.0099744249,0.0230000000005,0.45,2,3,-1,886,4
0.355811038826,0.223721995852,0.1713574327,1.25699656623,0.531,0.45,3,3,1,887,4
0.249027731022,1.02615253425,0.175744518705,0.0453865138158,0.438,0.45,1,1,2,888,4
0.277892259422,0.22265178098,1.09363073705,0.109637838304,0.355,0.45,2,2,2,889,4
0.1800077778,1.09660087732,0.140906632239,0.126816731973,0.366,0.45,1,1,2,890,4
1.17928989295,0.178878991125,0.162179377542,0.0686442051964,0.355,0.45,0,0,2,891,4
0.0665693733336,1.05132765474,0.188949305649,0.0761926204514,0.415,0.45,1,1,2,892,4
0.107421365121,0.177111599431,0.216024084669,1.10104504656,0.392,0.45,3,3,2,893,4
1.14144181942,0.191757492976,0.180752303429,0.0976360241342,0.399,0.45,0,0,2,894,4
0.138060104902,0.198880657392,1.13393645107,0.156534305983,0.318,0.45,2,2,2,895,4
0.0654040923941,0.168692797875,0.148850627127,1.01393197835,0.365,0.45,3,3,2,896,4
0.126979858406,0.199196998233,1.04679165026,0.177615773999,0.41,0.45,2,2,2,897,4
1.10484181582,0.218041692547,0.169138789029,0.170840918186,0.384,0.45,0,0,2,898,4
0.0957434210993,1.16577031557,0.1853821324,0.162939968245,0.331,0.45,1,1,2,899,4
0.137383354708,0.274573080787,1.07903006018,0.117038799067,0.323,0.45,2,2,2,900,4
0.0968531931879,1.07687596348,0.187130640902,0.158504521578,0.358,0.45,1,1,2,901,4
1.07998905537,0.258924706799,0.185554852282,0.138439994315,0.365,0.45,0,0,2,902,4
0.116515415975,0.140766369813,0.1510894285,1.02597788936,0.429,0.45,3,3,2,903,4
0.0753519551017,1.07368556917,0.147895080766,0.101562948364,0.328,0.45,1,1,2,904,4
0.179327889974,0.29860918655,1.0274793433,0.0744867956192,0.251,0.45,2,2,2,905,4
1.07293752783,0.295426829432,0.170635347087,0.187077166083,0.382,0.45,0,0,2,906,4
0.141805531859,0.247356867593,0.166329338361,1.08623477134,0.354,0.45,3,3,2,907,4
1.01336036329,0.199546367759,0.160406560637,0.121816193895,0.393,0.45,0,0,2,908,4
0.0962475836715,0.166102502257,1.05556963635,0.105389527377,0.342,0.45,2,2,2,909,4
0.123174759211,0.164119428747,0.105384760806,1.1930121518,0.332,0.45,3,3,2,910,4
0.125759504668,1.01780290825,0.163594544345,0.115721547098,0.278,0.45,1,1,2,911,4
0.14342912297,0.115181372905,0.095503618158,1.05582071705,0.371,0.45,3,3,2,912,4
0.0918672569138,0.332252916808,1.10312535646,0.174036821224,0.386,0.45,2,2,2,913,4
0.0719434715329,1.06974645738,0.150522017287,0.118642077231,0.367,0.45,1,1,2,914,4
1.23633557711,0.200851442903,0.161245997695,0.100395766127,0.339,0.45,0,0,2,915,4
0.217825859162,1.12403057939,0.19269566286,0.0904622074536,0.364,0.45,1,1,2,916,4
0.226794171193,0.244684346839,1.11825971928,0.19828343077,0.361,0.45,2,2,2,917,4
1.01037317902,0.216019935285,0.150093383231,0.146492297749,0.353,0.45,0,0,2,918,4
0.155182594191,0.173007381369,0.146724080965,1.026244706,0.331,0.45,3,3,2,919,4
0.0494071622277,1.00359506176,0.135330729709,0.00898873110062,0.29,0.45,2,1,-1,920,4
0.114555697211,0.127989254299,0.13124398006,1.04636491669,0.394,0.45,3,3,2,921,4
1.05103511331,0.23390712167,0.0894923011585,0.114669462679,0.381,0.45,0,0,2,922,4
0.174839570451,1.20649042068,0.113673982359,0.0148911981702,0.404,0.45,1,1,2,923,4
0.113422509697,0.152768536955,0.135008400351,1.16170079815,0.402,0.45,3,3,2,924,4
0.1164006498,1.09410027828,0.176893605059,0.105507558203,0.365,0.45,1,1,2,925,4
1.18177028667,0.200051443429,0.152440665188,0.117686377012,0.402,0.45,0,0,2,926,4
0.0955171059627,0.253257465097,1.1068039066,0.129610913769,0.333,0.45,2,2,2,927,4
0.106088273022,1.16544300942,0.168591133513,0.115621431529,0.322,0.45,1,1,2,928,4
0.118986359951,0.212269649,1.04648135079,0.0993779528672,0.354,0.45,2,2,2,929,4
1.00359608678,0.247860373287,0.142637477697,0.13212744526,0.374,0.45,0,0,2,930,4
0.173335470018,0.118799674703,0.124074785415,1.01149429541,0.421,0.45,3,3,2,931,4
0.144097142863,0.179411630678,0.18203895228,1.01172397235,0.449,0.45,2,3,-1,932,4
0.119828300477,0.210443177353,0.281143577167,0.286988030404,0.7,0.45,3,-1,0,934,4
0.0997487286027,0.121251758058,0.871434548904,1.03129460681,0.0890000000005,0.45,0,3,-1,934,4
0.492700801974,0.287449430696,1.10326064386,0.0991326791259,0.371,0.45,2,2,2,935,4
0.107091105468,1.08639603121,0.159006415561,0.0805415800438,0.391000000001,0.45,1,1,2,936,4
1.11377380213,0.333959762696,0.312785439289,0.226158696431,0.352000000001,0.45,0,0,2,937,4
0.23861785935,1.02376053818,0.342360031082,0.248338490207,0.332000000001,0.45,1,1,2,938,4
0.246496066378,0.301607698967,0.339429499258,1.00822110407,0.322000000001,0.45,3,3,2,939,4
0.252032888029,0.572865375421,1.03029617441,0.164640526771,0.338000000001,0.45,1,2,-1,940,4
0.118758528312,0.159446015124,1.0780169006,0.184261370838,0.405000000001,0.45,2,2,2,941,4
0.171501703367,0.203508007439,0.247382266514,1.03425102295,0.423000000001,0.45,3,3,2,942,4
1.04279562449,0.279947993262,0.208988958783,0.147723862899,0.406000000001,0.45,0,0,2,943,4
0.216742049686,0.191321627329,1.09234403223,0.165359653565,0.307000000001,0.45,2,2,2,944,4
0.136267399208,1.03020487833,0.146119387395,0.150476936705,0.354000000001,0.45,0,1,-1,945,4
0.234999589158,0.152079459458,0.180122634399,1.21873797026,0.359000000001,0.45,3,3,2,946,4
0.0872856164556,0.151887818005,1.07300229718,0.144460401935,0.415000000001,0.45,2,2,2,947,4
0.110037135391,1.08552851623,0.229984200112,0.0993920330105,0.341000000001,0.45,1,1,2,948,4
1.01754560281,0.20701602245,0.235367842169,0.164576789483,0.311000000001,0.45,3,0,-1,949,4
0.0574705077748,1.05522928698,0.247414188343,0.154143813645,0.414000000001,0.45,1,1,2,950,4
1.13680015718,0.321733048255,0.242744829075,0.142477700347,0.375000000001,0.45,0,0,2,951,4
0.16552644253,1.09930043064,0.252881959979,0.0862587713168,0.431000000001,0.45,1,1,2,952,4
0.242679620172,0.392508004083,0.28020293372,0.330246937969,0.7,0.45,3,-1,0,954,4
1.00084395512,0.338549162799,0.24158178892,0.108635900338,0.457000000001,0.45,0,0,1,954,4
0.222600115979,0.223655480428,1.0750479866,0.116118797322,0.385000000001,0.45,2,2,2,955,4
1.03867795676,0.205040534358,0.127135140602,0.0657453074189,0.367000000001,0.45,0,0,2,956,4
0.313515023314,0.163736693904,0.14373563152,1.09536554543,0.361000000001,0.45,3,3,2,957,4
0.0935846646892,0.141184612012,1.10923172791,0.0972329980727,0.384000000001,0.45,2,2,2,958,4
0.127240786476,1.02435191224,0.274701775802,0.139406138372,0.351000000001,0.45,1,1,2,959,4
1.21675607553,0.25360403856,0.324216478584,0.146091057583,0.381000000001,0.45,0,0,2,960,4
0.177222837401,1.12358019857,0.332432319999,0.130260211415,0.427000000001,0.45,1,1,2,961,4
0.192807790087,0.329481905957,1.0053383855,0.180883597799,0.361000000001,0.45,2,2,2,962,4
0.218999298843,0.256080159815,0.268372660957,1.01634271461,0.408000000001,0.45,3,3,2,963,4
0.1257640903,1.09617204504,0.236087237538,0.146161029587,0.402000000001,0.45,1,1,2,964,4
0.477950267604,0.318020125233,1.03739939948,0.196507196694,0.370000000001,0.45,3,2,-1,965,4
0.25366440429,0.0990624165476,1.06787817981,0.22124792426,0.499000000001,0.45,2,2,1,966,4
1.12146729403,0.286817236083,0.331306098571,0.200675141301,0.392000000001,0.45,0,0,2,967,4
0.241566298861,0.256901239671,0.295816970082,1.23494124624,0.338000000001,0.45,3,3,2,968,4
1.04957153434,0.342680458533,0.334979928943,0.176606468389,0.383000000001,0.45,0,0,2,969,4
0.152256591208,0.274735137423,1.00887684862,0.185642004792,0.324000000001,0.45,2,2,2,970,4
0.190740758887,1.08521870802,0.203533312508,0.17469638719,0.347000000001,0.45,1,1,2,971,4
0.248440215704,0.295284950786,1.10836825572,0.141887076908,0.387000000001,0.45,2,2,2,972,4
0.184798400442,0.243049072459,0.195457031201,1.01648863252,0.330000000001,0.45,3,3,2,973,4
1.05640602447,0.278180382587,0.251278789519,0.141411295471,0.376000000001,0.45,1,0,-1,974,4
0.129482865329,1.00551563617,0.255071123411,0.138941173769,0.367000000001,0.45,0,1,-1,975,4
0.174603611787,1.1053540098,0.254544386254,0.169694602317,0.438000000001,0.45,1,1,2,976,4
1.17305794934,0.272713308172,0.297515347942,0.213342957895,0.413000000001,0.45,0,0,2,977,4
0.364648685464,0.164732054796,0.191590477864,1.02639964914,0.659000000001,0.45,3,3,1,978,4
0.333136022872,0.276274150842,1.04245122983,0.128557818589,0.592000000001,0.45,2,2,1,979,4
0.671634370395,0.262052632326,0.176509467973,1.30065017857,0.590000000001,0.45,3,3,1,980,4
1.09831716912,0.188229684981,0.283908466692,0.141624734067,0.478000000001,0.45,0,0,1,981,4
0.268755079232,0.231328498505,1.08199983406,0.176078261155,0.361000000001,0.45,2,2,2,982,4
1.07193924611,0.549180671279,0.193865015253,0.146905897586,0.419000000001,0.45,0,0,2,983,4
1.11152364876,0.207333267039,0.204386389169,0.149918456306,0.383000000001,0.45,1,0,-1,984,4
0.112419073092,0.299578940128,1.09805891214,0.184610209224,0.393000000001,0.45,2,2,2,985,4
0.677199012677,1.00558999851,0.270089286652,0.133144484707,0.420000000001,0.45,1,1,2,986,4
0.102264008593,0.230119363906,0.240858067529,1.14109135099,0.311000000001,0.45,3,3,2,987,4
0.833689912474,1.13016887904,0.326974265909,0.154759842103,0.367000000001,0.45,1,1,2,988,4
0.0777910383507,0.152428378945,0.2665787055,1.0335706119,0.374000000001,0.45,3,3,2,989,4
0.113477697945,0.316815897919,1.02262822739,0.106385125681,0.339000000001,0.45,2,2,2,990,4
1.19926680995,0.278082918519,0.165691447559,0.129136448747,0.362000000001,0.45,0,0,2,991,4
0.234634426385,0.203839572514,0.14380551502,1.02306447016,0.382000000001,0.45,3,3,2,992,4
1.07138325789,0.246583445029,0.206318158993,0.145386286497,0.403000000001,0.45,0,0,2,993,4
0.0923056744804,0.208929296204,1.03227975447,0.141446220802,0.333000000001,0.45,2,2,2,994,4
0.0921470527219,0.174910684579,0.133703520386,1.03034414698,0.369000000001,0.45,3,3,2,995,4
0.106009579301,1.06451881833,0.195795443203,0.107309889,0.292000000001,0.45,1,1,2,996,4
0.0805349305082,0.227037655555,1.0794857303,0.136118296123,0.309000000001,0.45,2,2,2,997,4
0.73889403342,1.00977217374,0.121901063858,0.127032630345,0.365000000001,0.45,1,1,2,998,4
1.07794714306,0.215393761614,0.155051429545,0.120294277617,0.380000000001,0.45,0,0,2,999,4
0.0480918565123,1.02912371237,0.163968367582,0.0752710229947,0.410000000001,0.45,1,1,2,1000,4
1.13459288978,0.166105381497,0.173800996385,0.137989103929,0.417000000001,0.45,0,0,2,1001,4
0.0857934778307,0.142446952721,0.153908279194,1.08437669156,0.382000000001,0.45,3,3,2,1002,4
0.0942296972257,0.226107874563,1.01580275478,0.168498249536,0.305000000001,0.45,2,2,2,1003,4
0.125286099932,0.140584443423,0.12091253488,1.08140028679,0.395000000001,0.45,3,3,2,1004,4
1.10455660093,0.139650613976,0.155298735381,0.127353879438,0.412000000001,0.45,0,0,2,1005,4
0.118140471996,0.143498529341,1.03095235985,0.123991087963,0.336000000001,0.45,2,2,2,1006,4
1.19101578025,0.181789612786,0.120929858923,0.120002596288,0.380000000001,0.45,0,0,2,1007,4
0.0764654419067,1.19142824286,0.134975726409,0.129765536431,0.380000000001,0.45,1,1,2,1008,4
0.132560122128,0.0905580138467,0.159871452733,1.02073012955,0.420000000001,0.45,3,3,2,1009,4
0.127620921775,1.0115311052,0.151578537952,0.0586120567005,0.319000000001,0.45,1,1,2,1010,4
0.0980507336722,0.232664884627,1.00974843081,0.0722396811076,0.279000000001,0.45,2,2,2,1011,4
0.762070688574,1.06643771226,0.0855506143949,0.0534871239075,0.386000000001,0.45,1,1,2,1012,4
0.103527889932,0.798347134875,1.19604279026,0.019474977829,0.395000000001,0.45,2,2,2,1013,4
0.129334872722,0.190393929125,0.0891147044441,1.07406130853,0.369000000001,0.45,3,3,2,1014,4
0.0846124332362,1.06690764272,0.146225338169,0.0546252124852,0.296000000001,0.45,0,1,-1,1015,4
0.161519616685,0.070980775785,1.0943895648,0.0961419040371,0.313000000001,0.45,2,2,2,1016,4
1.17657909723,0.167667180549,0.11181852788,0.0701765337641,0.405000000001,0.45,0,0,2,1017,4
0.0872229272578,0.11421401673,0.0730777832688,1.0005041248,0.400000000001,0.45,3,3,2,1018,4
0.523738182425,1.07175903163,0.0883190455011,0.0665419270158,0.459000000001,0.45,1,1,1,1019,4
1.05037113416,0.18291691185,0.115713849133,0.070804811582,0.551000000001,0.45,0,0,1,1020,4
0.214719939584,1.10957946387,0.11441477193,0.06732780278,0.513000000001,0.45,1,1,1,1021,4
0.116468109919,0.112223911947,0.103670272437,1.0120934167,0.401000000001,0.45,3,3,2,1022,4
0.0803259726885,0.159919476476,1.07375870562,0.0771053510867,0.373000000001,0.45,2,2,2,1023,4
0.0784098801318,1.06667754868,0.123502882139,0.0588520512914,0.335000000001,0.45,1,1,2,1024,4
0.156881715717,0.232958347633,1.04213389173,0.0769341777221,0.352000000001,0.45,2,2,2,1025,4
0.110072667259,0.211348793429,0.112043456072,0.72758314621,0.7,0.45,3,-1,0,1027,4
0.0957291758319,0.160308047846,0.105077332079,1.00288658889,0.0190000000006,0.45,0,3,-1,1027,4
0.228981886646,0.253371628799,1.086818825,-0.0137696869648,0.454000000001,0.45,2,2,1,1028,4
0.0580621353966,1.02446981679,0.0500886799899,0.0416583348158,0.382000000001,0.45,0,1,-1,1029,4
0.141036781681,0.122787757927,0.11944512965,1.17213933496,0.350000000001,0.45,3,3,2,1030,4
0.12423064481,1.26677647048,0.186860708924,0.0328105524435,0.351000000001,0.45,1,1,2,1031,4
1.04787243457,0.275698225823,0.134560069514,0.0173628957024,0.359000000001,0.45,0,0,2,1032,4
0.0779231713366,1.08895411415,0.135707314126,0.0444506155682,0.353000000001,0.45,1,1,2,1033,4
0.155397472916,0.123842735029,0.11104039781,1.04860979343,0.338000000001,0.45,3,3,2,1034,4
0.153794169314,0.301503385809,1.1194112486,0.0470357697121,0.366000000001,0.45,2,2,2,1035,4
0.156546323009,1.04591482737,0.131895397896,0.00865373032082,0.345000000001,0.45,1,1,2,1036,4
1.07178312687,0.448459631507,0.23591459314,0.0389158517759,0.338000000001,0.45,0,0,2,1037,4
0.207256122653,0.226541362613,1.02075777102,0.0376805437085,0.367000000001,0.45,2,2,2,1038,4
0.235424768645,0.370662901188,0.160102907151,0.120107872505,0.7,0.45,3,-1,0,1040,4
1.05754779938,0.325998924472,0.158489011429,0.0547008784006,0.404000000001,0.45,0,0,2,1040,4
0.147197427182,0.145890765313,0.155398859931,1.16355975556,0.371000000001,0.45,3,3,2,1041,4
0.0758605603539,0.234888405708,1.1575855567,0.264166226774,0.435000000001,0.45,2,2,2,1042,4
1.11309964512,0.322609441706,0.171895481277,0.0662725765271,0.372000000001,0.45,0,0,2,1043,4
0.223590222806,1.07075567456,0.20736155104,0.0436284604679,0.394000000001,0.45,1,1,2,1044,4
0.18818698564,0.34286873867,1.04729978073,0.0865297755861,0.350000000001,0.45,2,2,2,1045,4
0.109517648464,1.04909546347,0.142177423071,0.0371400774165,0.448000000001,0.45,1,1,2,1046,4
0.143947867145,0.245019349774,0.193726644453,1.05098256213,0.691000000001,0.45,3,3,1,1047,4
0.152798823401,1.16477205492,0.117761070941,0.0194258960713,0.552000000001,0.45,1,1,1,1048,4
0.192922984599,0.380996449423,1.1349486769,0.0691995757738,0.393000000001,0.45,2,2,2,1049,4
0.168814725019,0.297794474017,0.209819511435,1.18644369306,0.383000000001,0.45,3,3,2,1050,4
1.19398825377,0.388872329367,0.179804463766,0.0320630325812,0.357000000001,0.45,0,0,2,1051,4
0.104928282066,0.165402588531,0.148385567409,1.08524067144,0.385000000001,0.45,3,3,2,1052,4
0.160332339772,0.198953927503,1.00752022189,0.0784598071614,0.429000000001,0.45,2,2,2,1053,4
1.06846211329,0.293770983682,0.15151973266,0.0832627429978,0.381000000001,0.45,0,0,2,1054,4
0.209992273927,1.13370818161,0.165615037826,0.0631660714253,0.323000000001,0.45,1,1,2,1055,4
1.13399440478,0.334335308849,0.231018932741,0.0487822287202,0.477000000001,0.45,0,0,1,1056,4
0.25713554239,0.17076072385,1.09273469421,0.0674772710971,0.473000000001,0.45,2,2,1,1057,4
0.0921026718013,1.00738008002,0.11568009206,0.0525668325507,0.405000000001,0.45,1,1,2,1058,4
0.13009488872,1.04385165959,0.226554815537,0.0393658337429,0.122000000001,0.45,3,1,-1,1059,4
1.00695028034,0.410386677056,0.382453000248,0.0812069912443,0.367000000001,0.45,1,0,-1,1060,4
0.0792505637596,0.327206347077,1.00380934434,0.158358866554,0.437000000001,0.45,2,2,2,1061,4
0.31293600823,0.555663075186,0.294324856279,0.111776441344,0.7,0.45,3,-1,0,1063,4
0.230042604475,0.397230291148,0.258103742688,1.16943751536,0.0590000000006,0.45,0,3,-1,1063,4
0.275888606082,0.22131603925,0.26204063535,1.08678850281,0.389000000001,0.45,3,3,2,1064,4
0.156216097048,0.341234613253,1.11390230164,0.0790652188441,0.403000000001,0.45,2,2,2,1065,4
1.05738336842,0.321645435143,0.270409300662,0.129084855157,0.401000000001,0.45,0,0,2,1066,4
0.157657754839,1.07022506035,0.272122648644,0.0968695345514,0.301000000001,0.45,1,1,2,1067,4
0.222890016092,0.331697816649,1.00048305008,0.119278648043,0.324000000001,0.45,3,2,-1,1068,4
0.0651409022736,1.11099661693,0.211576817471,0.110970538278,0.384000000001,0.45,1,1,2,1069,4
1.04963983843,0.229795917058,0.262247541428,0.124704318057,0.358000000001,0.45,0,0,2,1070,4
0.299483456647,0.328430276581,1.00320088298,0.161962463081,0.347000000001,0.45,2,2,2,1071,4
0.110134651378,1.13162853132,0.187617340895,0.150340282733,0.373000000001,0.45,1,1,2,1072,4
1.10559192931,0.295019180113,0.238242057172,0.111745631788,0.420000000001,0.45,0,0,2,1073,4
0.178426843251,0.326409108421,1.05696499004,0.0550733919546,0.341000000001,0.45,2,2,2,1074,4
0.293695896291,0.284189586866,0.140686414791,1.07005294799,0.380000000001,0.45,3,3,2,1075,4
0.060072684831,1.16230401844,0.175541369809,0.0256351368731,0.334000000001,0.45,0,1,-1,1076,4
0.146052433831,0.133205517391,0.138010019059,1.02161023996,0.376000000001,0.45,3,3,2,1077,4
0.101779291843,0.195547295555,1.01387270829,0.305451512152,0.411000000001,0.45,2,2,2,1078,4
1.01895654896,0.28656159078,0.210942730631,0.0895373107225,0.351000000001,0.45,0,0,2,1079,4
0.108590738043,1.15409486134,0.204006467564,0.0250075329313,0.367000000001,0.45,1,1,2,1080,4
0.0906665518756,0.117107614367,0.12662155779,1.03511636513,0.401000000001,0.45,3,3,2,1081,4
1.01685887623,0.32850623476,0.202132858989,0.0820655208698,0.411000000001,0.45,1,0,-1,1082,4
0.129525343317,0.246584542379,1.06964540843,0.0782357928291,0.400000000001,0.45,2,2,2,1083,4
0.109643612264,1.05584700549,0.147421197315,0.0852652930419,0.383000000001,0.45,1,1,2,1084,4
1.26271922462,0.13748646912,0.246684574652,0.0754286851916,0.585000000001,0.45,0,0,1,1085,5
0.202495099464,0.15528774173,0.187688689504,1.00113268379,0.467000000001,0.45,3,3,1,1086,5
0.143588480059,1.02425211765,0.190551394021,0.0373150546618,0.322000000001,0.45,1,1,2,1087,5
0.290988659718,0.246153668909,1.03634333819,0.0136198965205,0.359000000001,0.45,2,2,2,1088,5
0.0713915885306,1.16562558365,0.148272309723,-0.0287698563102,0.386000000001,0.45,1,1,2,1089,5
0.262906969815,0.202533690923,0.161300749361,1.21148532504,0.400000000001,0.45,3,3,2,1090,5
0.154296091045,0.236915032356,1.08204198557,0.0826801871819,0.409000000001,0.45,2,2,2,1091,5
0.04858842111,0.18897135936,0.131780834557,1.12430263962,0.396000000001,0.45,3,3,2,1092,5
1.02706749339,0.241195831122,0.185552731492,0.042564183008,0.434000000001,0.45,0,0,2,1093,5
0.0939273321047,0.249319094154,1.10464041124,0.0605389907617,0.367000000001,0.45,2,2,2,1094,5
1.06302313738,0.231230342799,0.190123980473,0.0447385937831,0.405000000001,0.45,0,0,2,1095,5
0.0611894570768,1.12220776907,0.186534303295,0.0770613973188,0.365000000001,0.45,1,1,2,1096,5
1.1107878756,0.213472506494,0.151294877078,0.0334823353721,0.385000000001,0.45,0,0,2,1097,5
0.147601030288,0.178977115259,0.133790875566,1.07354337603,0.368000000001,0.45,3,3,2,1098,5
0.0825352885005,1.01810420884,0.195898131942,0.104923152617,0.417000000001,0.45,1,1,2,1099,5
0.196984299691,0.218430035194,1.16265063744,0.0895315510907,0.379000000001,0.45,2,2,2,1100,5
0.0337256873328,0.151774528807,0.115195922126,1.00077487625,0.369000000001,0.45,3,3,2,1101,5
0.143919099654,0.26468407417,1.18068677795,0.0798114708645,0.390000000001,0.45,2,2,2,1102,5
0.0451173337411,1.13687197794,0.193248926667,0.0744278940209,0.333000000001,0.45,1,1,2,1103,5
1.01032898931,0.220318334815,0.176122280517,0.0444387557632,0.435000000001,0.45,0,0,2,1104,5
0.123297532026,0.219530157438,1.05221548941,0.0671639025373,0.368000000001,0.45,2,2,2,1105,5
1.0728365807,0.369220490277,0.182501172894,0.0629675520736,0.441000000001,0.45,0,0,2,1106,5
0.064314551094,1.15811141203,0.17537143828,0.0872771285971,0.382000000001,0.45,1,1,2,1107,5
0.197590190104,0.144766355291,0.15453685548,1.28286291075,0.372000000001,0.45,3,3,2,1108,5
1.06297139669,0.235633570753,0.199436027737,0.0562387854839,0.424000000001,0.45,0,0,2,1109,5
0.0503136230057,1.20805600609,0.179423918519,0.0757282415356,0.354000000001,0.45,1,1,2,1110,5
1.05451996924,0.24352299682,0.186474811212,0.0525033813658,0.321000000001,0.45,3,0,-1,1111,5
0.105974965108,0.297004298933,1.00584277274,0.142847827212,0.473000000001,0.45,2,2,1,1112,5
0.0344054548002,0.160666344946,0.138069549939,1.16605513896,0.439000000001,0.45,3,3,2,1113,5
0.0652583629245,1.20468142321,0.199787608374,0.0340264182781,0.350000000001,0.45,1,1,2,1114,5
0.12253700354,0.255115597303,1.09860202299,0.0664779534698,0.369000000001,0.45,2,2,2,1115,5
0.0258511445979,1.18179392212,0.11773188542,0.0328109184091,0.401000000001,0.45,1,1,2,1116,5
1.13990001953,0.187548887315,0.135314811786,0.0379042342267,0.443000000001,0.45,0,0,2,1117,5
0.137799937274,0.241688236429,1.05747023704,0.051269526389,0.330000000001,0.45,2,2,2,1118,5
1.07210213737,0.243697046568,0.193206403716,0.0954566210663,0.476000000001,0.45,0,0,1,1119,5
0.14957857457,0.189260692569,0.165133214675,1.05562575871,0.382000000001,0.45,3,3,2,1120,5
1.03763083581,0.197149165391,0.190262703874,0.0666665292732,0.420000000001,0.45,0,0,2,1121,5
0.0951513882612,1.02259445295,0.213487369166,0.0582336102314,0.396000000001,0.45,1,1,2,1122,5
0.0647023791527,0.217857229108,1.13292711811,0.0461130383623,0.340000000001,0.45,2,2,2,1123,5
0.08986521125,0.235136971472,0.219286535828,1.27779819159,0.385000000001,0.45,3,3,2,1124,5
0.0645318979214,0.31695861698,1.03891993135,0.105691797845,0.313000000001,0.45,2,2,2,1125,5
0.0286128077113,1.13593103924,0.216429619358,0.0586665354024,0.309000000001,0.45,1,1,2,1126,5
0.177793702289,0.332511180005,0.199046346947,1.1000221248,0.313000000001,0.45,3,3,2,1127,5
1.11393255995,0.291455737701,0.24406564413,0.0453875009668,0.394000000001,0.45,0,0,2,1128,5
0.124110631289,0.32841275336,1.07062436949,0.0759656366575,0.325000000001,0.45,2,2,2,1129,5
1.09947719803,0.262377182621,0.181665966203,0.0920540137283,0.422000000001,0.45,0,0,2,1130,5
0.14074871798,0.201825299442,0.165120739963,1.14644313623,0.385000000001,0.45,3,3,2,1131,5
0.0501874667531,1.0863626148,0.200760758948,0.10243796754,0.343000000001,0.45,1,1,2,1132,5
1.01874823489,0.2357760004,0.200013111666,0.0935698016315,0.390000000001,0.45,0,0,2,1133,5
0.176534712085,0.201112440157,0.175213318671,1.02193208438,0.408000000001,0.45,3,3,2,1134,5
0.0755194378765,1.13153117319,0.222783356986,0.118407818933,0.453000000001,0.45,1,1,1,1135,5
0.155240093141,0.267643312751,1.06761907007,0.109342610397,0.369000000001,0.45,2,2,2,1136,5
0.0529318981571,0.151540242247,0.13877669161,1.01740080153,0.379000000001,0.45,3,3,2,1137,5
0.049001859321,0.230368069691,1.06256880774,0.0886546996317,0.396000000001,0.45,2,2,2,1138,5
0.0477460421972,1.07626387216,0.196234986906,0.10791807594,0.429000000001,0.45,1,1,2,1139,5
0.201998111143,0.166405230813,0.177420590474,1.19164928187,0.409000000001,0.45,3,3,2,1140,5
1.03164219585,0.255977796278,0.202035749575,0.112712213474,0.395000000001,0.45,0,0,2,1141,5
0.115814898324,0.288387242745,1.07803619563,0.0346170314976,0.325000000001,0.45,2,2,2,1142,5
1.12417051452,0.264868909074,0.15643552196,0.0589696306937,0.436000000001,0.45,0,0,2,1143,5
0.0894023551914,1.12130393247,0.173318000264,0.0344365909954,0.374000000001,0.45,1,1,2,1144,5
1.02044180372,0.273838343864,0.183914048923,0.0674364329004,0.434000000001,0.45,0,0,2,1145,5
0.185469221619,0.24666731772,1.11685954372,0.0276207104927,0.327000000001,0.45,2,2,2,1146,5
0.0452314676813,1.01328947507,0.148594483266,0.0892162512582,0.379000000001,0.45,1,1,2,1147,5
0.158311997545,0.143788429454,0.131422352354,1.11046084347,0.369000000001,0.45,3,3,2,1148,5
0.00920410623587,1.0230689906,0.176474904792,0.10624640467,0.372000000001,0.45,1,1,2,1149,5
0.129811574383,0.255851887362,1.0648915669,0.0504010785255,0.393000000001,0.45,2,2,2,1150,5
0.112435004074,0.183388186413,0.160025281382,1.09600754318,0.439000000001,0.45,3,3,2,1151,5
1.01728010636,0.314092994939,0.217951636934,0.0799225752698,0.423000000001,0.45,0,0,2,1152,5
0.149326753127,0.248262797169,0.248072835083,1.03945822545,0.418000000001,0.45,3,3,2,1153,5
0.0617683139802,0.223906797976,1.0119819206,0.214415934614,0.436000000001,0.45,2,2,2,1154,5
1.00614469671,0.288500272785,0.251908048144,0.143277381587,0.428000000001,0.45,0,0,2,1155,5
0.0399331545215,1.09522097448,0.201732683663,0.0124168914833,0.391000000001,0.45,1,1,2,1156,5
1.00823486148,0.23152796581,0.241016966844,-0.00132146368844,0.470000000001,0.45,0,0,1,1157,5
0.104979901687,0.113408981389,0.170583976133,1.06277164073,0.412000000001,0.45,3,3,2,1158,5
0.0852073290043,1.00655967863,0.195581543315,0.0826789288069,0.413000000001,0.45,1,1,2,1159,5
0.132002012387,0.223048296192,1.10801256185,0.0760367022974,0.341000000001,0.45,2,2,2,1160,5
0.134538701762,0.168155140427,0.126647513925,1.14341574143,0.393000000001,0.45,3,3,2,1161,5
0.118031586771,0.160282101049,1.10365023685,0.507445204251,0.454000000001,0.45,2,2,1,1162,5
0.031500638147,1.01173231307,0.168854849328,0.0768502627088,0.400000000001,0.45,1,1,2,1163,5
0.0737035878307,0.0921809405451,0.383134370353,1.109625883,0.422000000001,0.45,3,3,2,1164,5
1.19391735373,0.223507787569,0.198891739072,0.0438337669565,0.429000000001,0.45,0,0,2,1165,5
0.137319630013,0.235713964792,1.05995593842,0.0527772187746,0.311000000001,0.45,2,2,2,1166,5
1.02221915315,0.245952152074,0.194633210647,0.0675107368621,0.438000000001,0.45,0,0,2,1167,5
0.0788711919947,1.1549506455,0.18777370964,0.0293530321828,0.421000000001,0.45,1,1,2,1168,5
1.10885434297,0.201772411837,0.185637363157,0.034291630935,0.462000000001,0.45,0,0,1,1169,5
0.160708211174,0.159033579824,0.17060000116,1.08423448388,0.386000000001,0.45,3,3,2,1170,5
0.187012824728,1.0012809961,0.56496643491,0.00895020112488,0.413000000001,0.45,1,1,2,1171,5
0.11506254889,0.18816705701,1.0151961888,0.0300096940079,0.325000000001,0.45,2,2,2,1172,5
0.120589908577,0.172788862174,0.103110058268,1.0067456354,0.378000000001,0.45,3,3,2,1173,5
0.12452145285,0.227971637394,1.04837793623,0.0305453496833,0.399000000001,0.45,2,2,2,1174,5
0.306439333127,1.04047505736,0.17414438497,0.0795129064204,0.336000000001,0.45,1,1,2,1175,5
1.13658447359,0.217398559425,0.160391401029,0.0457114905976,0.326000000001,0.45,0,0,2,1176,5
0.159987720351,0.203076740468,1.02781733466,0.0127102896784,0.316000000001,0.45,2,2,2,1177,5
1.21337169897,0.202005377633,0.1260895613,0.0450043300238,0.395000000001,0.45,0,0,2,1178,5
0.16356376608,1.24889838153,0.169305595926,0.0410344789471,0.367000000001,0.45,1,1,2,1179,5
0.158187331045,0.189307235076,0.1368174704,1.21584777299,0.380000000001,0.45,3,3,2,1180,5
1.11960069397,0.358019323879,0.230985752909,0.0363196862168,0.378000000001,0.45,0,0,2,1181,5
0.179558633709,0.335992571981,1.06233272113,0.0337335302568,0.332000000001,0.45,2,2,2,1182,5
0.103529568473,1.06762630992,0.232151839857,0.0498419207628,0.336000000001,0.45,1,1,2,1183,5
0.261343676417,0.227157020634,0.191517121337,1.05760021957,0.388000000001,0.45,3,3,2,1184,5
0.116829167189,0.21495641286,1.06672432517,0.0631508453884,0.395000000001,0.45,2,2,2,1185,5
0.212195741925,0.200424713084,0.146419387013,1.19266275715,0.427000000001,0.45,3,3,2,1186,5
0.0623448540556,1.05963751219,0.206499474522,0.0541526270598,0.349000000001,0.45,1,1,2,1187,5
0.16350820857,0.247949579723,1.19554458128,0.0309479035916,0.351000000001,0.45,2,2,2,1188,5
