force_0,force_1,force_2,force_3,rt,rt_threshold,target_finger,selected_finger,score,trial,run
2.25614741424,1.59730483704,1.0283621357,2.17437684434,0.006,0.45,2,0,-1,0,0
1.47511997346,1.00642721996,0.299720977678,0.186897425188,0.411,0.45,0,0,2,1,0
0.111461853096,0.0602908041954,0.859095920517,1.00730917687,0.388,0.45,3,3,2,2,0
0.282425285959,1.41125228467,0.153128734341,0.14828892983,0.407,0.45,1,1,2,3,0
0.140682832032,0.119527138905,1.0865447964,0.137425265187,0.328,0.45,3,2,-1,4,0
1.29711708915,0.0960558003328,0.0812963668432,0.1303761877,0.387,0.45,0,0,2,5,0
0.299420237871,1.3498585318,0.220787712672,0.0712331172255,0.552,0.45,1,1,1,6,0
0.149300412651,0.056451190872,1.082218433,0.225278623155,0.441,0.45,2,2,2,7,0
0.14819338519,0.109956928471,0.0571870353252,1.11075851721,0.368,0.45,3,3,2,8,0
0.184066457414,0.0386643947958,1.26430845328,0.0980792946275,0.36,0.45,2,2,2,9,0
0.181686403707,1.09676811677,0.175700321786,0.109832882806,0.306,0.45,1,1,2,10,0
1.2464295055,0.0488199548302,0.168905813236,0.193528235744,0.259,0.45,0,0,2,11,0
0.14982077459,0.0934481406156,1.0932001613,0.240886237222,0.261,0.45,2,2,2,12,0
0.341524533698,1.20390002511,0.100595032014,0.130352009344,0.254,0.45,1,1,2,13,0
0.0214658976311,0.022519001572,1.04479878097,0.0319593067694,0.305,0.45,3,2,-1,14,0
1.00200542968,0.0664195463062,0.0575571631872,0.0436512104094,0.322,0.45,0,0,2,15,0
0.0413224558692,0.0715155615351,0.113010046126,1.07114134364,0.329,0.45,3,3,2,16,0
0.0400687602161,1.0505302577,0.0466110790466,0.00409293607801,0.328,0.45,1,1,2,17,0
1.55949518971,0.105393296599,0.0909683925836,0.0933953855798,0.294,0.45,0,0,2,18,0
0.0428041988062,0.0375235191351,1.12716337949,0.238474142283,0.304,0.45,2,2,2,19,0
1.09831769771,0.197778851111,0.0837829157898,0.162635524197,0.296,0.45,0,0,2,20,0
0.12148088941,1.13381568965,0.0788042185866,0.166876793568,0.307,0.45,1,1,2,21,0
0.0224805064386,0.0100834086882,1.31232116974,0.237035374248,0.314,0.45,2,2,2,22,0
0.143453359086,0.0508499727636,0.131832272973,1.10847248761,0.357,0.45,3,3,2,23,0
0.0808459714963,0.0476672831267,1.05627008273,0.0201930867068,0.376,0.45,2,2,2,24,0
0.160900004267,0.0839299544726,0.129586153793,1.20160525406,0.354,0.45,3,3,2,25,0
0.208822557665,1.13682024701,0.161513904319,0.159494903504,0.327,0.45,1,1,2,26,0
1.01729875646,0.11910530418,0.191132369284,0.223220893784,0.33,0.45,0,0,2,27,0
0.11186356375,1.15614613128,0.255944536177,0.262668947864,0.346,0.45,1,1,2,28,0
0.063575902427,0.0434766620492,0.370825741856,1.02785392439,0.374,0.45,3,3,2,29,0
1.29905650684,0.405683878161,0.063358745193,0.0965986837871,0.327,0.45,0,0,2,30,0
0.0214191499477,0.0338031772136,1.120589766,0.253357152945,0.289,0.45,2,2,2,31,0
1.19376490552,0.119327586985,0.130654531072,0.200114705512,0.277,0.45,0,0,2,32,0
0.100620918057,0.121706410432,0.113716892669,1.07379566277,0.297,0.45,3,3,2,33,0
0.0414220762416,0.066339927308,1.08690969487,0.145922053576,0.365,0.45,2,2,2,34,0
0.215462981942,1.12559203038,0.10058044108,0.136843822298,0.298,0.45,1,1,2,35,0
1.34415379773,0.156922351966,0.100539781451,0.228894204874,0.235,0.45,2,0,-1,36,0
0.237727057476,1.12492732061,0.485596460002,0.14736059611,0.387,0.45,1,1,2,37,0
0.108450106665,0.000139485263784,0.0321908593336,1.13172642231,0.376,0.45,3,3,2,38,0
1.3268006235,0.100580564147,0.0537473858316,0.086903211019,0.321,0.45,0,0,2,39,0
0.0459020317451,0.0755416871548,0.0646652691403,1.06736919126,0.328,0.45,3,3,2,40,0
0.318999373438,1.11878323455,0.064203370448,0.123608903737,0.392,0.45,1,1,2,41,0
1.01170575175,0.0509937443982,0.134394256103,0.18289151052,0.327,0.45,0,0,2,42,0
0.140872986148,1.10402776687,0.0853777764943,0.135948729897,0.355,0.45,1,1,2,43,0
0.125343288355,0.0844450564135,1.05316262539,0.265293618944,0.331,0.45,2,2,2,44,0
1.02174099977,0.118100503018,0.118076789889,0.123215119602,0.296,0.45,0,0,2,45,0
0.0582799822514,0.0473517009822,1.20722519065,0.153059393233,0.327,0.45,2,2,2,46,0
0.144090852805,0.0955109381119,0.0714147325277,1.14001554806,0.352,0.45,3,3,2,47,0
0.0489528217604,0.0465758667299,1.10278552112,-0.0828383643056,0.375,0.45,2,2,2,48,0
0.218950844925,0.0745275865416,0.0891468929273,1.10725561117,0.412,0.45,3,3,2,49,0
0.224717340355,1.06488677428,0.411225961845,0.0668837623214,0.439,0.45,1,1,2,50,0
1.51426589032,0.111942321065,0.0602871805084,0.16566964306,0.347,0.45,0,0,2,51,0
0.277653742515,1.19179429167,0.062451483498,0.0828338758556,0.366,0.45,1,1,2,52,0
0.07357899185,0.0332532616793,0.256591438473,1.17047637598,0.334,0.45,3,3,2,53,0
1.22315476946,0.221834457312,0.0401578758232,0.112034468136,0.332,0.45,0,0,2,54,0
0.139666673855,0.0705769332816,1.03982613474,0.242909957432,0.281,0.45,2,2,2,55,0
0.252398140774,1.23987946444,0.0889166199888,0.101152679566,0.295,0.45,1,1,2,56,0
0.110581848261,0.0439123992262,0.0907671079578,1.1397920708,0.327,0.45,2,3,-1,57,0
1.00752117693,0.0436167389468,0.0593331804238,0.0439515594652,0.346,0.45,0,0,2,58,0
0.045999873712,0.0273044733534,1.13548015619,0.0952853610042,0.358,0.45,3,2,-1,59,0
0.0389742091991,0.041759586926,1.42017639686,-0.0224602117984,0.47,0.45,2,2,1,60,0
0.0854454361833,0.0106338052555,0.0177364723137,1.18763255838,0.599,0.45,3,3,1,61,0
1.0014120242,0.10808806184,0.0514881700303,0.0903815496807,0.402,0.45,1,0,-1,62,0
1.93449144102,-0.00333074008229,-0.0123133863361,0.297511359357,0.416,0.45,0,0,2,63,0
0.072142182159,1.05315273633,0.033618368481,-0.0237889349021,0.467,0.45,1,1,1,64,0
0.060956046697,0.0118276686425,0.0188675018743,1.09844314324,0.407,0.45,3,3,2,65,0
1.2435093283,0.15768187727,0.0208868344011,0.0887672460326,0.33,0.45,0,0,2,66,0
0.182179130755,0.170893829492,1.04646936656,0.246805908437,0.286,0.45,2,2,2,67,0
2.03528269279,0.223928385402,0.0825480316952,0.112064558149,0.395,0.45,0,0,2,68,0
0.0769559204345,0.029298370894,1.00793822677,0.142562991524,0.284,0.45,3,2,-1,69,0
0.0748075129718,1.01390660926,0.0189087298421,0.107758645974,0.363,0.45,2,1,-1,70,0
0.00077997960938,1.18460391065,-0.0312211196557,0.0847837556132,0.35,0.45,1,1,2,71,0
0.0854533386796,0.0211009541581,1.11971971887,0.397665293842,0.363,0.45,2,2,2,72,0
0.157306669379,0.0411609257155,0.16979619381,1.03657952761,0.341,0.45,3,3,2,73,0
1.22271803172,0.103790778973,0.155460757287,0.0443651203483,0.303,0.45,0,0,2,74,0
0.0565843478325,0.112351389303,1.02859404291,0.169761895103,0.32,0.45,1,2,-1,75,0
1.23873237728,0.0768346587326,-0.0148291926813,0.0996211406934,0.385,0.45,0,0,2,76,0
0.0508360703585,0.0709698660062,0.0234576579998,1.2610397041,0.329,0.45,3,3,2,77,0
0.115593392076,1.20477991972,0.0314778184387,0.0660851038536,0.272,0.45,1,1,2,78,0
0.0211138019014,0.0322628324575,1.16952361705,0.162087717633,0.353,0.45,3,2,-1,79,0
0.00836178323453,0.00721453925881,1.02556953533,-0.0489701829699,0.455,0.45,2,2,1,80,0
1.28766561701,0.0492968862807,0.069448528811,0.15380749286,0.462,0.45,0,0,1,81,0
-0.0222730394072,0.0307947544887,1.2894087674,0.170480497461,0.336,0.45,2,2,2,82,0
0.225353875122,1.17301344779,0.0689312925634,0.19503849209,0.307,0.45,1,1,2,83,0
0.00906625286025,0.0111950077528,1.14509967487,0.561896514052,0.347,0.45,2,2,2,84,0
0.0140285589441,0.00952899135215,0.0976660091795,1.13805403224,0.385,0.45,3,3,2,85,0
1.52790679214,0.0518732159818,-0.00618822755163,0.113722941598,0.341,0.45,0,0,2,86,0
0.144943673041,1.30829242887,0.0370594440482,0.217901184583,0.35,0.45,1,1,2,87,0
1.48477979891,0.0341713877744,0.0387105804111,0.180682662635,0.357,0.45,0,0,2,88,0
0.0418999849194,0.0441323548705,0.124421780306,1.20179491332,0.362,0.45,3,3,2,89,0
0.0890718289551,1.20152858722,0.44634605326,-0.0660363890274,0.383,0.45,1,1,2,90,0
0.0500626457527,0.16538848812,-0.00387158992666,1.03800743497,0.389,0.45,3,3,2,91,0
0.0700352513321,0.0333610913367,1.03121180913,0.0562425599893,0.387,0.45,2,2,2,92,0
0.314133799427,1.03884910709,0.01771044518,0.106196497729,0.329,0.45,1,1,2,93,0
-0.0117562014483,0.0203951080075,1.01799719198,0.155397882977,0.32,0.45,2,2,2,94,0
1.26221906893,0.189842509852,0.025775758578,0.130454483447,0.323,0.45,0,0,2,95,0
0.0919783178264,0.0583398662218,1.12949993617,0.139919475517,0.332,0.45,2,2,2,96,0
0.106650597165,0.111303826959,0.00457818764456,1.02015516514,0.388,0.45,3,3,2,97,0
0.142914985985,1.00963324738,0.0132815922002,0.052995952203,0.342,0.45,1,1,2,98,0
1.16417938124,0.153040689694,0.110197755289,0.128280701938,0.355,0.45,0,0,2,99,0
-0.015504458756,0.0766968743447,0.0741539951862,1.01553018478,0.352,0.45,3,3,2,100,0
1.34660992072,0.0334848400274,0.0611004682078,0.0606903141273,0.337,0.45,0,0,2,101,0
0.131074419638,1.0213960719,0.144464462951,0.222525684132,0.363,0.45,1,1,2,102,0
0.069206556573,0.0426975572908,0.0913293044554,1.06325664772,0.365,0.45,3,3,2,103,0
0.173217768124,0.0782326219595,1.05547831209,0.135031111359,0.362,0.45,2,2,2,104,0
1.22425465234,0.151144467213,0.0526772025989,0.0996723543908,0.323,0.45,0,0,2,105,0
0.10098905872,0.0609561171881,1.21971140272,0.168135662045,0.299,0.45,2,2,2,106,0
0.138307048418,1.10279013734,0.0333719731906,0.10950233755,0.292,0.45,1,1,2,107,0
0.129348377147,0.0879237951952,1.07336655755,0.26933868142,0.316,0.45,2,2,2,108,0
0.0763478524212,1.13770030619,0.0872079822872,0.0471423227956,0.373,0.45,1,1,2,109,0
1.0518584411,0.21991476591,0.150002150262,0.182088800177,0.344,0.45,0,0,2,110,0
-0.00288944392237,0.0900756794766,0.0913381375325,1.18677153248,0.366,0.45,3,3,2,111,0
0.196378424283,1.06412083074,0.0817370927868,0.148275882202,0.322,0.45,1,1,2,112,0
0.0599618883892,0.022212800486,0.780116819576,1.04413931215,0.376,0.45,3,3,2,113,0
1.1987731173,0.172474118628,0.0157587450383,0.0921902814871,0.336,0.45,0,0,2,114,0
-0.010725243796,0.058539723495,1.06831379666,0.274494694722,0.376,0.45,2,2,2,115,0
0.109019099183,0.0344377379611,0.00648025780502,1.03235871408,0.397,0.45,3,3,2,116,0
0.053733755591,0.0530789931621,1.04367514797,0.0418527072513,0.484,0.45,2,2,1,117,0
1.26772918536,0.0825326306616,0.108396037863,0.0954321201021,0.406,0.45,0,0,2,118,0
0.0866572244386,1.00886768822,0.0952821460007,0.0766518793798,0.361,0.45,1,1,2,119,0
0.112759756367,0.0756086016264,1.06238355748,0.181127469882,0.323,0.45,2,2,2,120,0
0.114995818287,0.115219847093,0.03448185584,1.06478928909,0.332,0.45,3,3,2,121,0
1.25881102285,0.177086696514,0.0575531749783,0.22592991662,0.334,0.45,0,0,2,122,0
0.204223504959,1.04576810887,0.102933510122,0.199174554283,0.311,0.45,1,1,2,123,0
1.39459963199,0.145061292241,0.140185218985,0.236745118482,0.356,0.45,0,0,2,124,0
0.0154936182241,0.0429703194368,0.541100899876,1.15934973418,0.369,0.45,3,3,2,125,0
0.289570513339,1.01646526883,-0.00882905243988,0.196138633989,0.303,0.45,1,1,2,126,0
0.192194968508,0.0704071496476,1.04505105743,0.370955609739,0.329,0.45,2,2,2,127,0
1.13832652277,0.128885568561,0.0888641841728,0.104541196094,0.285,0.45,0,0,2,128,0
0.185615551099,0.101704987962,1.12806348741,0.212163504852,0.296,0.45,2,2,2,129,0
0.207533427748,1.02764976502,0.112686868999,0.140116464732,0.297,0.45,1,1,2,130,0
0.338211259118,0.0716903280519,0.0993199295079,1.03789306935,0.356,0.45,3,3,2,131,0
0.0346651182419,0.0579829923946,1.27789097678,0.0885638648167,0.382,0.45,2,2,2,132,0
1.08662749065,0.136300567546,0.0802707553736,0.142020840455,0.319,0.45,0,0,2,133,0
0.0624142791503,1.17188210554,0.0751528827923,0.0749660758406,0.322,0.45,1,1,2,134,0
0.141379260185,0.0509286246091,0.119322021974,1.06873934654,0.327,0.45,3,3,2,135,0
1.24816638963,0.171161939422,0.103928112953,0.190839502296,0.279,0.45,0,0,2,136,0
0.0655605253635,0.0506392800089,0.137018824982,1.09925418666,0.387,0.45,3,3,2,137,0
0.202565852554,0.0333705418957,1.06908735694,0.0748576258019,0.416,0.45,1,2,-1,138,0
1.20240436779,0.179207806946,-0.0305897653124,0.229172901621,0.376,0.45,0,0,2,139,0
0.14217532443,0.0637136776248,1.20003007622,0.258383297882,0.377,0.45,2,2,2,140,0
0.298983151154,0.200963902425,0.0599192177634,1.07866411091,0.371,0.45,3,3,2,141,0
0.122769610322,0.0439223741397,1.43451796674,0.217367856014,0.448,0.45,2,2,2,142,0
0.409857435219,1.26793518108,0.0728179568859,0.164260730504,0.333,0.45,1,1,2,143,0
0.112032510421,0.072498576043,1.22984623183,0.188379750926,0.354,0.45,2,2,2,144,0
0.267767447902,1.01768094554,0.124584240954,0.135040207554,0.304,0.45,1,1,2,145,0
0.104430801034,0.158468743673,0.101132694151,1.03554899338,0.325,0.45,3,3,2,146,0
1.40486609636,0.210730864227,0.0707771782186,0.159737181656,0.281,0.45,0,0,2,147,0
0.0814899424145,0.0984326325541,0.746169465923,1.01216647996,0.378,0.45,3,3,2,148,0
0.240303401282,1.15712344876,0.0202989417585,0.12357307498,0.336,0.45,1,1,2,149,0
1.40883555704,0.152898030856,0.0730046622497,0.208737802444,0.317,0.45,0,0,2,150,0
0.480221504888,1.19429377573,0.139327236155,0.340431529939,0.333,0.45,1,1,2,151,0
0.140436479429,0.0305405686101,1.07828864797,0.395901406671,0.338,0.45,2,2,2,152,0
0.222581891589,0.189599590951,0.0800604982117,1.04262681679,0.307,0.45,3,3,2,153,0
0.138910758861,0.118279716375,1.01500318937,0.198027121132,0.339,0.45,2,2,2,154,0
1.06814121976,0.221023691332,0.164032367291,0.267204101136,0.31,0.45,0,0,2,155,0
0.096317863465,0.0891723582237,1.20070476183,0.322428429143,0.309,0.45,2,2,2,156,0
0.360404068834,1.27153833951,0.170250840739,0.229937201567,0.287,0.45,1,1,2,157,0
0.233952084646,0.179853213389,0.174203967567,1.00275387869,0.341,0.45,3,3,2,158,0
1.17617977048,0.195317954729,0.0905281555881,0.186585792897,0.297,0.45,0,0,2,159,0
0.17866078592,0.12531157424,1.08713659309,0.322771210574,0.3,0.45,3,2,-1,160,0
0.296246113063,1.12616574653,0.0487668743251,0.197673920058,0.405,0.45,1,1,2,161,0
1.12124765482,0.233970138036,0.259886643025,0.356378845092,0.309,0.45,0,0,2,162,0
0.261072243433,0.224296127467,1.15308305974,0.347568489826,0.299,0.45,2,2,2,163,0
0.222665740464,0.224412468822,0.143179442928,1.01700274156,0.323,0.45,3,3,2,164,0
0.232343569745,0.204195375929,1.11198196028,0.374371421773,0.393,0.45,2,2,2,165,0
1.26185081847,0.273019862071,0.111063153489,0.325982912943,0.366,0.45,0,0,2,166,0
0.24931362263,1.19042899993,0.165860204343,0.24041324128,0.341,0.45,1,1,2,167,0
0.289935226772,0.252364286978,1.00447517597,0.318625674287,0.34,0.45,2,2,2,168,0
0.185025926541,0.254303849005,0.163299613931,1.15459440261,0.266,0.45,3,3,2,169,0
1.03112706859,0.342816229482,0.25392420074,0.306811375776,0.347,0.45,1,0,-1,170,0
1.08774853784,0.240652741418,0.236939481776,0.410496592907,0.354,0.45,0,0,2,171,0
0.220205265622,1.23677308924,0.236162543699,0.212606618766,0.353,0.45,1,1,2,172,0
0.0881991670119,0.166928644252,0.119213726081,1.07244731479,0.37,0.45,3,3,2,173,0
1.0479541928,0.238138464338,0.125494496187,0.153687801502,0.341,0.45,0,0,2,174,0
0.143873919107,0.186622575525,0.164786926158,1.07189970151,0.366,0.45,3,3,2,175,0
0.155543749707,0.225045927702,1.24793351645,0.29328396519,0.394,0.45,2,2,2,176,0
0.177872867722,1.12865651159,0.170854198723,0.230104503807,0.357,0.45,1,1,2,177,0
0.209917331965,0.154097267443,1.17934146431,0.314067893354,0.371,0.45,2,2,2,178,0
1.22912352171,0.260713943862,0.159009233622,0.203127120992,0.374,0.45,0,0,2,179,0
0.163101680372,0.0778663212202,1.31494333831,0.202727626878,0.396,0.45,2,2,2,180,0
0.621043188481,1.00769686857,0.246845591346,0.296613470305,0.395,0.45,0,1,-1,181,0
0.220974829969,0.0244692167,0.157899127519,1.06551866615,0.454,0.45,3,3,1,182,0
0.0916913313508,1.15464880027,0.0875714929434,0.0943072726773,0.472,0.45,1,1,1,183,0
0.25078881891,0.114706107432,0.132755755913,1.08096072555,0.418,0.45,3,3,2,184,0
1.15491459019,0.560692185211,0.075579344537,0.133481684442,0.349,0.45,0,0,2,185,0
0.221084602138,1.03305390612,0.119987025361,0.244410469404,0.301,0.45,1,1,2,186,0
0.185804940907,0.156013678441,1.14655464598,0.221545639272,0.311,0.45,2,2,2,187,0
0.134409700418,0.136444898224,0.136169130143,1.05139287436,0.371,0.45,3,3,2,188,0
0.2237712346,0.170811447323,1.16290230588,0.217328903292,0.33,0.45,2,2,2,189,0
0.234035590561,1.20501272172,0.15278436095,0.327773208372,0.287,0.45,1,1,2,190,0
1.09752010934,0.268738124807,0.276641964199,0.353964033861,0.292,0.45,0,0,2,191,0
0.277446402613,0.181307184096,1.01836131596,0.369194953532,0.346,0.45,2,2,2,192,0
0.195054051179,0.145132681099,0.118762605863,1.11600896769,0.389,0.45,3,3,2,193,0
0.256871911791,1.16133451889,0.0905660072516,0.207230543151,0.316,0.45,1,1,2,194,0
1.30327680873,0.170978508126,0.197519170009,0.365431605491,0.345,0.45,0,0,2,195,0
0.139810157011,0.109421088159,0.145784955328,1.09063878117,0.373,0.45,3,3,2,196,0
1.1957821819,0.190333400273,0.133734016422,0.26424043969,0.279,0.45,0,0,2,197,0
1.49094342513,0.212557304837,0.296172132806,0.274997031323,0.348,0.45,1,0,-1,198,0
1.55288817316e-05,0.200033224832,1.18312862826,0.380485043907,0.351,0.45,2,2,2,199,0
1.16345023125,0.408404353547,0.0678892551073,0.187105141801,0.357,0.45,0,0,2,200,0
0.193369348662,0.232250283066,1.11330994703,0.329899997253,0.353,0.45,2,2,2,201,0
0.232359480148,1.02316763274,0.193547596801,0.231916963955,0.296,0.45,1,1,2,202,0
0.148094926628,0.201969985537,0.115113888562,1.11290489083,0.65,0.45,3,3,1,203,0
0.130827940153,0.0731981396179,1.13435677059,0.177305349482,0.567,0.45,2,2,1,204,0
0.208918593785,0.135401581005,0.0532222356538,1.12817105295,0.614,0.45,3,3,1,205,0
1.21258191104,0.223783398268,0.123784114511,0.170775739028,0.402,0.45,0,0,2,206,0
0.131767773394,1.04280709232,0.103443483484,0.0784685556505,0.295,0.45,1,1,2,207,0
1.4092326157,0.179753022422,0.221296161773,0.163054179756,0.337,0.45,0,0,2,208,0
0.226661377511,0.129597390581,0.178493873166,1.01870096259,0.385,0.45,3,3,2,209,0
0.292804050598,1.10602334756,0.132831980508,0.169631800835,0.303,0.45,1,1,2,210,0
0.180289955557,0.180068803525,1.0102000063,0.203299479555,0.324,0.45,2,2,2,211,0
1.14119765772,0.551618336121,0.0481318926536,0.126529074526,0.313,0.45,0,0,2,212,0
0.23512403637,0.302416955032,1.23144749936,0.298067787312,0.312,0.45,2,2,2,213,0
0.25686150274,1.02312008674,0.149730163579,0.145549084877,0.258,0.45,1,1,2,214,0
0.112020849411,0.0412487482098,1.05287434315,0.285202389775,0.304,0.45,3,2,-1,215,0
0.176874904088,1.08200858683,0.066599783881,0.495279271616,0.368,0.45,2,1,-1,216,0
0.238467434363,0.149050972049,0.112790892993,1.14827657992,0.487,0.45,3,3,1,217,1
0.294077031665,1.13268080296,0.119696977619,0.171165149392,0.417,0.45,1,1,2,218,1
0.201427558652,0.102418183642,1.07564670034,0.216749107122,0.305,0.45,2,2,2,219,1
1.32865613537,0.24988393285,0.13805229907,0.164802734406,0.312,0.45,0,0,2,220,1
0.291216373476,1.05984370203,0.175941029964,0.118915821607,0.266,0.45,1,1,2,221,1
1.64704599233,0.308836517163,0.219922076089,0.142731234981,0.292,0.45,0,0,2,222,1
0.251458900785,0.199564585836,1.01333856392,0.281712881615,0.31,0.45,2,2,2,223,1
0.31197808111,0.3145904655,0.150606526038,0.345329198248,0.7,0.45,3,-1,0,225,1
0.220123844265,0.263224093182,0.127236516715,1.09041966345,0.0530000000001,0.45,0,3,-1,225,1
0.210008456433,0.203623113753,0.149226266445,1.01124213913,0.385,0.45,3,3,2,226,1
0.204293596251,0.0903920584518,1.2227384712,0.0788431357756,0.393,0.45,2,2,2,227,1
0.503488469159,1.26519042673,0.183917208382,0.144272759306,0.361,0.45,1,1,2,228,1
0.409637226479,0.164288024782,0.252653460888,1.00199132607,0.356,0.45,3,3,2,229,1
0.371822466856,0.192788754952,1.22711459716,0.155602816437,0.363,0.45,2,2,2,230,1
0.385281918243,1.04113749849,0.216488143762,0.113951982074,0.323,0.45,1,1,2,231,1
1.45726986658,0.321760832821,0.224501033441,0.111024331173,0.295,0.45,0,0,2,232,1
0.527805806392,1.12694964916,0.295085817076,0.255756772546,0.326,0.45,1,1,2,233,1
0.34730133403,0.254684018403,1.04376736347,0.343420705114,0.31,0.45,2,2,2,234,1
1.73270774223,0.312073584208,0.207405883646,0.156773107996,0.295,0.45,0,0,2,235,1
0.176963162767,0.166756413541,0.173809064048,1.01213131712,0.349,0.45,3,3,2,236,1
0.35639658828,1.22264969005,0.178542425438,0.164918000782,0.338,0.45,1,1,2,237,1
0.234283486704,0.188085351466,1.1839663658,0.256026757641,0.283,0.45,3,2,-1,238,1
1.20443816736,0.536495901355,0.203437345119,0.210537479077,0.326,0.45,0,0,2,239,1
0.289562643707,0.210944574822,1.18138447659,0.146920457218,0.327,0.45,2,2,2,240,1
0.278086700447,0.247214784378,0.0922534539251,1.06270173552,0.373,0.45,3,3,2,241,1
0.243134351621,1.0886201965,0.114054788567,0.130951489967,0.346,0.45,1,1,2,242,1
0.170435752498,0.128613257419,1.08479681414,0.168181388238,0.326,0.45,2,2,2,243,1
1.25008140482,0.27172594736,0.176137926644,0.227131789238,0.264,0.45,0,0,2,244,1
0.254240723801,0.213960527512,1.18463107086,0.229965436085,0.277,0.45,2,2,2,245,1
0.365257621339,1.33704196828,0.225234698487,0.207475227946,0.271,0.45,1,1,2,246,1
1.34887103322,0.289060644884,0.238125889281,0.237033539238,0.329,0.45,0,0,2,247,1
0.163758509634,0.158360082067,0.17500109288,1.10040051581,0.381,0.45,3,3,2,248,1
0.345392755041,0.255981654563,1.14874798626,0.269974760021,0.319,0.45,2,2,2,249,1
0.166422501946,0.19820012105,0.121679025973,1.05633286481,0.386,0.45,3,3,2,250,1
1.11451563197,0.719013411842,0.185399581441,0.153951069763,0.377,0.45,0,0,2,251,1
0.296674831525,1.13205298337,0.375047236197,0.242331349471,0.398,0.45,1,1,2,252,1
0.36304487573,0.171044135291,1.00185581325,0.198859926144,0.326,0.45,3,2,-1,253,1
0.421824518612,1.21879082464,0.459747148872,0.224539628999,0.395,0.45,1,1,2,254,1
0.366969987724,0.251293831672,1.14675406712,0.305178795117,0.3,0.45,2,2,2,255,1
1.12790230008,0.377555816635,0.151792349264,0.180970426354,0.287,0.45,0,0,2,256,1
0.414842030304,1.05135318522,0.188110105851,0.140435561903,0.276,0.45,1,1,2,257,1
1.21524599174,0.299185731518,0.270566230384,0.233820010767,0.343,0.45,0,0,2,258,1
0.175824605665,0.0675376203277,1.00961354994,0.0231910294712,0.346,0.45,2,2,2,259,1
0.288797229511,0.200960995641,0.165732696549,1.02059303595,0.675,0.45,3,3,1,260,1
0.160379353951,0.19372130108,1.1595722999,0.117053235877,0.582,0.45,2,2,1,261,1
0.267796741207,1.18050957178,0.00854148254167,-0.0068932904035,0.447,0.45,1,1,2,262,1
0.246778563077,0.172176881165,0.0922311369474,1.02278368759,0.4,0.45,3,3,2,263,1
1.06401082555,0.209189355361,0.14401267521,0.035189285274,0.377,0.45,0,0,2,264,1
0.278433120393,0.152790238033,0.163192336382,1.04324095228,0.373,0.45,3,3,2,265,1
0.29114990722,0.112512761828,1.14090220349,0.190466330661,0.319,0.45,2,2,2,266,1
1.1750985026,0.283704072361,0.179526087793,0.0692590037959,0.292,0.45,0,0,2,267,1
0.413136522093,1.09734349724,0.221589244495,0.0650084846374,0.309,0.45,1,1,2,268,1
1.00605024088,0.271540024255,0.240202542493,0.105342910161,0.325,0.45,0,0,2,269,1
0.411054614148,0.160767387092,1.21818116527,0.259915486282,0.329,0.45,2,2,2,270,1
0.494411793852,1.09358402258,0.200515091972,0.104182389548,0.341,0.45,1,1,2,271,1
0.27486023987,0.222666255335,0.189965354121,1.02912266301,0.362,0.45,3,3,2,272,1
0.368580852549,1.02191598445,0.172162735179,0.0877840396123,0.29,0.45,1,1,2,273,1
0.466103164712,0.222277213374,1.24957981592,0.178179425679,0.329,0.45,2,2,2,274,1
0.243970289657,0.17089719863,0.204448544006,1.07101130992,0.341,0.45,3,3,2,275,1
1.22875328472,0.389639938063,0.191220544464,0.13794957859,0.374,0.45,0,0,2,276,1
0.226019263468,0.18431332717,0.119458313584,1.03697530474,0.468,0.45,3,3,1,277,1
1.21783277739,0.389260596863,0.246365700343,0.130725306512,0.41,0.45,0,0,2,278,1
0.573758811609,1.2749929184,0.269992050865,0.134692503523,0.331,0.45,1,1,2,279,1
0.298191238087,0.120023148961,1.11418192528,0.183352329798,0.274,0.45,2,2,2,280,1
0.453613921313,1.09668752096,0.834118761771,0.155682014916,0.39,0.45,1,1,2,281,1
1.06855063376,0.332181483521,0.126685352402,0.115701672777,0.335,0.45,0,0,2,282,1
0.437930620385,0.291921761764,1.00760389755,0.142115648916,0.293,0.45,2,2,2,283,1
1.08885525937,0.317576625003,0.227515450017,0.0827116409799,0.308,0.45,0,0,2,284,1
0.341978777685,0.249587464561,0.214700065434,1.02522538527,0.385,0.45,3,3,2,285,1
0.343258105455,1.0428623707,0.234768283175,0.173298611245,0.362,0.45,1,1,2,286,1
0.239941904916,0.224240355181,1.0669816226,0.131051543113,0.304,0.45,3,2,-1,287,1
0.384163136729,0.267887329957,1.09228638212,0.118739760628,0.327,0.45,2,2,2,288,1
0.393991816844,0.223325395347,0.120901884067,1.01708310308,0.387,0.45,3,3,2,289,1
1.35843604271,0.269872809958,0.150993357756,0.093323913577,0.36,0.45,0,0,2,290,1
0.337859657027,0.218471705981,1.11606923716,0.181304495441,0.307,0.45,2,2,2,291,1
0.488065631026,1.23299640238,0.180077887668,0.0682772912936,0.327,0.45,1,1,2,292,1
1.43519290379,0.326405697714,0.263829439131,0.0768554858664,0.411,0.45,0,0,2,293,1
0.260596428233,1.17091823322,0.257641379377,0.05591434806,0.369,0.45,1,1,2,294,1
0.360734798641,0.341899100394,1.01904123024,0.128230987421,0.381,0.45,2,2,2,295,1
1.11533836551,0.307001963027,0.236271654052,0.172498838489,0.317,0.45,0,0,2,296,1
0.283512565422,0.220601715687,0.203052960213,1.07143919291,0.346,0.45,3,3,2,297,1
0.339162262794,0.240705102999,1.21911079568,0.204506712798,0.392,0.45,2,2,2,298,1
0.358545760909,0.206880671517,0.182560144569,1.0440303229,0.491,0.45,3,3,1,299,1
0.656499864897,1.16424902403,0.222905646185,0.146081386686,0.4,0.45,1,1,2,300,1
0.203165528634,0.0813377212743,0.171464941358,1.0342237981,0.391,0.45,3,3,2,301,1
0.466092900367,0.369764113043,1.10211097821,0.224413210018,0.357,0.45,2,2,2,302,1
1.01127019589,0.387136596204,0.275136118072,0.137664957222,0.324,0.45,0,0,2,303,1
0.801662151332,1.04085843683,0.250771861278,0.0904611182048,0.35,0.45,1,1,2,304,1
1.48712761072,0.356047546307,0.349989183759,0.174972198768,0.353,0.45,0,0,2,305,1
0.403609085789,0.327196244271,1.12265507162,0.105090975697,0.348,0.45,2,2,2,306,1
0.339470845387,1.08726274894,0.250175465035,0.111559490352,0.327,0.45,1,1,2,307,1
0.350241106882,0.206187097548,1.06508769301,0.245703942011,0.352,0.45,2,2,2,308,1
0.306727287789,0.195536293815,0.162825225224,1.15991419876,0.699,0.45,3,3,1,309,1
1.36040363909,0.395450366079,0.0406490816073,0.228797743122,0.476,0.45,0,0,1,310,1
0.273920043801,0.30490945023,0.187311020014,1.01343518402,0.45,0.45,3,3,1,311,1
0.250876966926,1.10781109164,0.180297828941,0.0877089064643,0.509,0.45,1,1,1,312,1
0.376281813511,0.193734998503,0.252453552596,1.0881271321,0.405,0.45,3,3,2,313,1
1.22371441989,0.352493635022,0.168926171617,0.0727403620754,0.329,0.45,0,0,2,314,1
0.362649988448,1.07274545735,0.186532069658,0.0385334657037,0.312,0.45,1,1,2,315,1
0.496099605093,0.365612398708,1.0100931723,0.106236547586,0.292,0.45,2,2,2,316,1
1.21320514177,0.350535760108,0.0977018645795,0.0926631001611,0.371,0.45,0,0,2,317,1
0.412641055362,0.251161726796,1.02455468985,0.219054892831,0.374,0.45,2,2,2,318,1
0.33947985803,0.213372327333,1.05657138969,0.042862986668,0.34,0.45,1,2,-1,319,1
0.385344819879,0.243644792402,0.0586464083578,1.01515210041,0.433,0.45,3,3,2,320,1
0.443562165915,1.15851249673,0.0892823473226,0.100770498885,0.307,0.45,1,1,2,321,1
1.37229251758,0.275941143819,0.208617854099,0.057430958296,0.287,0.45,0,0,2,322,1
0.284269217786,0.239045059473,0.18064443315,1.04858889287,0.336,0.45,3,3,2,323,1
0.286893379079,1.2541077127,0.187582141152,0.0998601495908,0.321,0.45,2,1,-1,324,1
0.334009519628,0.10492693458,0.221306757243,1.09405930575,0.413,0.45,3,3,2,325,1
0.519257068814,1.06461361321,0.128222788365,0.10906457544,0.341,0.45,1,1,2,326,1
1.12399147214,1.02672326416,0.22494549107,0.112570817786,0.371,0.45,0,0,2,327,1
0.423140921277,0.164613924523,1.13136459445,0.219614536214,0.366,0.45,2,2,2,328,1
0.375615853779,1.33305857699,0.202728103177,0.0558715556234,0.367,0.45,1,1,2,329,1
0.323709114714,0.245442379814,1.29012258633,0.134229145409,0.42,0.45,2,2,2,330,1
1.31882368663,0.369297602913,0.272701055627,0.109452187311,0.396,0.45,0,0,2,331,1
0.530774392889,1.11915236887,0.273574285364,0.0534853091183,0.342,0.45,1,1,2,332,1
0.228806085256,0.130435701529,0.169409952421,0.92937657952,0.7,0.45,3,-1,0,334,1
0.232309808298,0.128077908547,0.15674718336,1.04311822205,0.0110000000002,0.45,2,3,-1,334,1
0.273539921898,0.230494766632,0.119884469491,1.03595199801,0.426,0.45,3,3,2,335,1
1.11905044736,0.325758300783,0.16579054171,0.0910155425773,0.447,0.45,0,0,2,336,1
0.177581467094,0.226542534662,0.148385055998,1.03814125633,0.356,0.45,3,3,2,337,1
0.394712625073,1.21918582188,0.193349880111,0.162037220005,0.349,0.45,1,1,2,338,1
0.374068278794,0.270635716704,1.04523526214,0.186753299203,0.316,0.45,2,2,2,339,1
1.27023935531,0.349006862047,0.281066246451,0.09640326541,0.306,0.45,0,0,2,340,1
0.573442829089,0.350933290781,1.11674689371,0.130492908924,0.359,0.45,2,2,2,341,1
0.437898312469,1.2592842542,0.271576149653,0.179823823151,0.315,0.45,1,1,2,342,1
1.2655799967,0.405330929791,0.339654725538,0.224500158792,0.373,0.45,0,0,2,343,1
0.346334580573,0.283861437716,0.326863676762,1.12938594756,0.413,0.45,3,3,2,344,1
1.15705172535,0.445548208038,0.227876842453,0.0482525765658,0.388,0.45,0,0,2,345,1
0.735135337469,1.03086854611,0.266443015244,0.069603951328,0.358,0.45,1,1,2,346,1
0.361737128637,0.187721423193,0.153098434161,0.502082676561,0.7,0.45,3,-1,0,348,1
0.269804688954,0.119322691904,0.0968691195849,1.11628450805,0.0590000000002,0.45,2,3,-1,348,1
0.3059760095,0.140038948371,0.157675149209,1.10267392636,0.489,0.45,3,3,1,349,1
1.23826809636,0.196053246821,0.244251139991,0.0438035288896,0.471,0.45,1,0,-1,350,1
0.123655408745,0.224569822131,1.1673701,0.112956568983,0.463,0.45,2,2,1,351,1
1.62601301693,0.38314757867,0.174253574522,0.0308630876134,0.368,0.45,0,0,2,352,1
0.297535432246,1.00392024588,0.206204781089,0.00101304199872,0.261,0.45,1,1,2,353,1
1.16271001568,0.232126817787,0.270547404207,0.118321777586,0.337,0.45,0,0,2,354,1
0.279291154974,0.230080802931,1.10350720405,0.0906062454888,0.303,0.45,2,2,2,355,1
0.341366306704,1.08403500586,0.197971954621,0.0974491459128,0.308,0.45,1,1,2,356,1
0.2350728087,0.242051429889,0.212790217954,1.02452003749,0.337,0.45,3,3,2,357,1
0.423396041884,1.0650217567,0.0869952785905,-0.00141737737897,0.46,0.45,0,1,-1,358,1
0.319442951899,0.0492505391167,0.0845733167307,1.06607149727,0.505,0.45,3,3,1,359,1
0.350678894873,0.134982484662,0.11052916711,1.18093237251,0.601,0.45,2,3,-1,360,1
0.323694422428,0.137388299133,0.178621276672,1.205115388,0.638,0.45,3,3,1,361,1
1.07636768336,0.219451688814,0.142316458645,0.365108500328,0.449,0.45,1,0,-1,362,1
0.123186993954,0.15308178851,1.27527592391,0.382768374852,0.454,0.45,2,2,1,363,1
1.10847346309,0.242035878334,0.18009178203,0.271553632108,0.436,0.45,0,0,2,364,1
0.207393982896,0.117267477813,0.308115546768,1.21903349518,0.415,0.45,2,3,-1,365,1
0.315003696786,1.1689221398,0.273392026408,0.224182282514,0.469,0.45,1,1,1,366,1
1.01961112057,0.231122343925,0.234011438108,0.168699329205,0.46,0.45,0,0,1,367,1
0.175670823244,1.12349848191,0.215152568703,0.183381498347,0.44,0.45,1,1,2,368,1
0.305747350567,0.163880355792,0.203974417834,1.31256588349,0.384,0.45,3,3,2,369,1
0.396072007249,0.278295980986,1.0268599966,0.3497408361,0.347,0.45,2,2,2,370,1
0.246938962408,0.299939373688,0.134592731759,1.06299185339,0.41,0.45,3,3,2,371,1
1.12706800064,0.636620238438,0.0970488828536,0.335987317343,0.366,0.45,0,0,2,372,1
0.261956627118,0.0668433150255,1.06126620274,0.344511982564,0.334,0.45,3,2,-1,373,1
0.334064881256,1.12951799197,0.0933076816895,0.434025333791,0.331,0.45,1,1,2,374,1
1.24949542208,0.283247803554,0.208800052398,0.549913257124,0.325,0.45,0,0,2,375,1
0.428870751435,0.201428128997,1.11358493064,0.47782955101,0.322,0.45,2,2,2,376,1
1.45671224455,0.365556091373,0.237832049192,0.504757149037,0.343,0.45,0,0,2,377,1
0.501909914955,1.17485228997,0.227413054221,0.426075101178,0.326,0.45,1,1,2,378,1
0.462342465699,0.247093496212,1.19568760274,0.378966543091,0.397,0.45,2,2,2,379,1
0.406355324194,0.305302633388,0.264813444431,1.07277548455,0.332,0.45,3,3,2,380,1
1.10421669026,0.195316542514,0.24180008574,0.386917529703,0.415,0.45,0,0,2,381,1
0.294229497152,0.112019482371,0.272124456317,1.00546680361,0.444,0.45,3,3,2,382,1
0.35972103202,0.157138516857,1.20297650815,0.392573082403,0.365,0.45,2,2,2,383,1
0.248213114078,1.38773145996,0.200426199956,0.376829690671,0.319,0.45,1,1,2,384,1
0.391465455126,0.356236351707,0.314329901216,1.00257124758,0.282,0.45,3,3,2,385,1
0.322880203934,1.04401047398,0.176505979312,0.4542693869,0.262,0.45,1,1,2,386,1
0.294666294413,0.236033449181,1.03441122275,0.493438139736,0.314,0.45,2,2,2,387,1
1.14267180102,0.198439738285,0.193996943688,0.46945548325,0.371,0.45,0,0,2,388,1
0.345055855096,1.06058123687,0.283936179602,0.630908583622,0.297,0.45,1,1,2,389,1
1.36795967979,0.26925453322,0.267215074368,0.49145792281,0.343,0.45,0,0,2,390,1
0.287258599056,0.28164747448,1.02429282476,0.507105661438,0.365,0.45,2,2,2,391,1
0.177001219835,0.130432831094,0.106888170703,1.05543394072,0.365,0.45,3,3,2,392,1
0.213161115803,0.427219492347,1.04897132299,0.37668030547,0.481,0.45,2,2,1,393,1
0.289194319526,1.18807415785,0.161212085729,0.356514480621,0.437,0.45,1,1,2,394,1
0.343001875009,0.11393757003,0.178575562906,1.09234600814,0.381,0.45,3,3,2,395,1
1.23197412291,0.336315196636,0.226693435207,0.497216100488,0.411,0.45,0,0,2,396,1
0.419753470151,0.208215003942,0.230137220689,1.11075654383,0.338,0.45,3,3,2,397,1
1.20621311045,0.392162717518,0.160990733959,0.36768436801,0.353,0.45,0,0,2,398,1
0.375730954486,1.11614970234,0.151900974672,0.400043936831,0.359,0.45,1,1,2,399,1
0.472855322007,0.10574495257,1.18777348389,0.372574911463,0.374,0.45,2,2,2,400,1
1.13748217911,0.21751493709,0.111094753678,0.541449927403,0.316,0.45,0,0,2,401,1
0.401136216428,0.181314901459,1.20899017643,0.478243127513,0.33,0.45,2,2,2,402,1
0.306877339404,1.14577829283,0.148684425717,0.473969420991,0.345,0.45,1,1,2,403,1
1.24173237725,0.232513751642,0.205933255118,0.423955673055,0.304,0.45,0,0,2,404,1
0.285815460983,0.172783417808,0.197264484984,1.007420456,0.322,0.45,3,3,2,405,1
0.220583182646,0.138159976465,1.09439526878,0.214290778513,0.426,0.45,2,2,2,406,1
0.249631720412,0.227999334668,0.187868368207,1.10242373368,0.422,0.45,3,3,2,407,1
0.379060105272,1.03278532574,0.185867650864,0.429681659722,0.38,0.45,1,1,2,408,1
0.236576249202,0.15197676978,0.210308180978,1.13314613162,0.405,0.45,3,3,2,409,1
1.09631023598,0.308638882692,0.205150020634,0.350163939368,0.436,0.45,0,0,2,410,1
0.192386201833,1.23487036004,0.209305829042,0.360136212309,0.471,0.45,1,1,1,411,1
0.505145180597,0.119365515733,1.02780582624,0.337067557303,0.451,0.45,2,2,1,412,1
0.428473032956,1.11951927257,0.22732315596,0.375945965097,0.41,0.45,1,1,2,413,1
1.21956701093,0.230864223958,0.245155559774,0.3713572986,0.304,0.45,0,0,2,414,1
0.536570917194,0.281913992354,1.04412376553,0.314600234698,0.292,0.45,2,2,2,415,1
1.2845873039,0.325274271782,0.275337407458,0.434548311948,0.346,0.45,0,0,2,416,1
0.338680023745,0.196542481899,0.201260335176,1.29677947022,0.346,0.45,3,3,2,417,1
0.366035192586,1.03102193674,0.191017807416,0.360580717901,0.313,0.45,1,1,2,418,1
0.444119886894,0.203565988877,0.2524795318,1.2217800188,0.315,0.45,3,3,2,419,1
0.2600514627,0.114761791687,1.01337923203,0.332358442119,0.38,0.45,2,2,2,420,1
0.279093205841,0.148997449882,0.11830572977,1.13133065507,0.377,0.45,3,3,2,421,1
0.354742406965,1.22938891228,0.231943215373,0.379674979015,0.38,0.45,1,1,2,422,1
1.07716594773,0.284270975984,0.255714440168,0.361802492387,0.308,0.45,0,0,2,423,1
0.504464085335,0.273138550609,1.04321322213,0.418699347715,0.347,0.45,2,2,2,424,1
1.02189036603,0.360557517435,0.224822000583,0.443849996662,0.359,0.45,0,0,2,425,1
0.69532145515,1.03997955185,0.628897561632,0.327207733725,0.419,0.45,1,1,2,426,1
0.440539824873,0.190943571981,1.15842897428,0.22367371546,0.377,0.45,2,2,2,427,1
0.358239563347,1.02497171786,0.121555145481,0.429243126581,0.35,0.45,1,1,2,428,1
0.359446361604,0.248244033941,0.221804146861,1.18695850352,0.397,0.45,3,3,2,429,1
1.31179275288,0.340678950103,0.297907463482,0.461738848091,0.42,0.45,0,0,2,430,1
0.183012199112,0.280672114421,0.266122530554,1.09672714024,0.415,0.45,3,3,2,431,1
0.308641114233,0.259995857381,1.11689613005,0.478888665789,0.37,0.45,2,2,2,432,1
0.277309637779,0.229529770249,0.203599507018,1.02492482468,0.437,0.45,3,3,2,433,1
0.488973421415,0.27315258277,1.02310634006,0.347623237748,0.523,0.45,2,2,1,434,2
0.567900229482,0.324127461147,0.16896333954,1.12697054076,0.407,0.45,3,3,2,435,2
1.42243624825,0.318998734999,0.20011141612,0.282307556919,0.351,0.45,0,0,2,436,2
0.413008199115,1.20568628821,0.225693154139,0.316326161446,0.301,0.45,1,1,2,437,2
0.213998795428,0.114790532477,0.138559350578,1.00060948413,0.336,0.45,3,3,2,438,2
0.431804176633,1.06431116688,0.148403019783,0.391137745491,0.321,0.45,1,1,2,439,2
1.01743070517,0.410074683919,0.154077786526,0.347267653032,0.299,0.45,0,0,2,440,2
0.482424330888,0.289884231829,0.172217427457,1.01729491233,0.405,0.45,3,3,2,441,2
0.327105548557,0.143635563298,1.16501230315,0.408837614089,0.345,0.45,2,2,2,442,2
0.342147261998,1.28228021995,0.217607146892,0.339477314857,0.291,0.45,1,1,2,443,2
0.397716584099,0.104276536071,1.00824481605,0.325890533195,0.347,0.45,2,2,2,444,2
1.38084043836,0.203796441873,0.228704289841,0.347958614766,0.323,0.45,0,0,2,445,2
0.419830033431,0.19601185728,1.13472442316,0.418950006857,0.353,0.45,2,2,2,446,2
0.455149618537,1.00626370238,0.256686805901,0.370454079906,0.282,0.45,1,1,2,447,2
0.372475914839,0.201898177154,0.139336442663,1.05675736042,0.566,0.45,3,3,1,448,2
1.09751788149,0.160729760185,0.199833856552,0.34495438847,0.432,0.45,0,0,2,449,2
0.242948975589,0.110695884903,0.20046492633,1.11048261029,0.378,0.45,3,3,2,450,2
0.38142493135,1.11145190662,0.123658525234,0.275309039299,0.381,0.45,1,1,2,451,2
1.0103162523,0.303573725992,0.194967102384,0.337874818175,0.333,0.45,0,0,2,452,2
0.374341837027,0.235176585154,1.03779901986,0.338798588247,0.298,0.45,2,2,2,453,2
0.15905014221,0.168774731406,0.0794106548284,1.13495224102,0.348,0.45,3,3,2,454,2
0.252864249167,0.247730233376,1.12561552312,0.242491669537,0.39,0.45,2,2,2,455,2
1.12182218648,0.23690060293,0.210067701351,0.254407926944,0.342,0.45,0,0,2,456,2
0.541166787209,1.20062774948,0.28908547363,0.308537662037,0.261,0.45,1,1,2,457,2
0.425429235042,0.23758274329,1.11241151126,0.30140730715,0.364,0.45,2,2,2,458,2
0.510179896748,1.05868363122,0.2279370835,0.393678887533,0.382,0.45,1,1,2,459,2
1.45866420291,0.351228666428,0.381813415198,0.422622328347,0.385,0.45,0,0,2,460,2
0.442444533781,0.274837810154,0.255378668878,1.10186384953,0.341,0.45,3,3,2,461,2
1.072360252,0.364388530949,0.230199257304,0.316163322482,0.355,0.45,0,0,2,462,2
0.577160067045,1.12395675857,0.256084245552,0.408791025282,0.39,0.45,1,1,2,463,2
0.422458926547,0.292584084563,0.269195561248,1.04936387311,0.352,0.45,3,3,2,464,2
0.181264985562,1.06762894872,0.172321475715,0.277726982096,0.349,0.45,1,1,2,465,2
0.450053652504,0.270776072053,1.11797468787,0.35729023288,0.329,0.45,2,2,2,466,2
1.24864310309,0.322266325223,0.197165503314,0.387029994848,0.291,0.45,0,0,2,467,2
0.423127943125,0.257775521203,1.0703247288,0.31389205627,0.288,0.45,2,2,2,468,2
0.351205678262,0.520517172513,0.19351565722,1.04718478059,0.365,0.45,3,3,2,469,2
0.525238876972,0.328853406224,1.11370971634,0.446540130354,0.489,0.45,2,2,1,470,2
0.36165690156,0.176427213192,0.224960972495,1.08366072029,0.466,0.45,3,3,1,471,2
0.801819722242,1.07051303065,0.217596180497,0.377449120636,0.415,0.45,1,1,2,472,2
1.38128415912,0.125494314974,0.2442544086,0.418537006239,0.348,0.45,0,0,2,473,2
0.440801322623,0.221743914765,1.02641307674,0.502521578664,0.341,0.45,3,2,-1,474,2
1.02316389544,0.301236939028,0.132390764247,0.458078270333,0.371,0.45,0,0,2,475,2
0.390992550367,1.16430941875,0.175566176869,0.315206590962,0.34,0.45,1,1,2,476,2
0.278237735836,0.20813925923,1.03891439248,0.354721198039,0.298,0.45,2,2,2,477,2
1.18927910253,0.284352728211,0.272980273543,0.416120224534,0.34,0.45,1,0,-1,478,2
0.12801768236,0.222602505674,0.187988123536,1.15012430593,0.362,0.45,3,3,2,479,2
0.237861720105,0.227243058624,0.238030901805,1.18417587484,0.349,0.45,2,3,-1,480,2
1.23910294837,0.501322457123,0.247786166608,0.221083766842,0.415,0.45,0,0,2,481,2
0.292567674823,0.0684740789868,1.09246117546,0.252881165022,0.357,0.45,2,2,2,482,2
1.1878737091,0.199905213586,0.2057408654,0.214920431411,0.364,0.45,0,0,2,483,2
0.234983792193,0.152870401896,0.165757988575,1.00385983216,0.364,0.45,3,3,2,484,2
0.366682635087,1.0790793655,0.166667742817,0.317093834496,0.34,0.45,1,1,2,485,2
1.10634708025,0.185614458602,0.184893980835,0.272086348056,0.356,0.45,0,0,2,486,2
0.320369940662,1.08226389093,0.179840414897,0.295335861836,0.378,0.45,1,1,2,487,2
0.320592342978,0.157701318352,0.289356410384,1.17060651136,0.346,0.45,3,3,2,488,2
0.248529141513,0.166698523553,1.0786517163,0.29309746395,0.376,0.45,2,2,2,489,2
0.341192505321,1.07686786355,0.205506938663,0.342969107317,0.336,0.45,1,1,2,490,2
0.228988101423,0.0741773122641,1.02955724559,0.279074016278,0.365,0.45,2,2,2,491,2
0.355460379155,0.203624248212,0.203317125225,1.04949028928,0.337,0.45,3,3,2,492,2
1.16787548333,0.26162435478,0.211498372028,0.301119497653,0.332,0.45,0,0,2,493,2
0.380454073589,0.199555292101,1.06961932585,0.310686829449,0.313,0.45,2,2,2,494,2
1.21742576239,0.723995413968,0.174081980554,0.319986893783,0.373,0.45,0,0,2,495,2
0.560110942082,1.11241161576,0.216898512396,0.384982957555,0.453,0.45,1,1,1,496,2
0.403280249683,0.24008747314,0.18024182662,1.17763145511,0.375,0.45,3,3,2,497,2
1.11672595252,0.225914024016,0.144714033762,0.365336447435,0.322,0.45,0,0,2,498,2
0.378990790689,0.20705779307,0.286543710414,1.23953291652,0.362,0.45,3,3,2,499,2
0.40237395078,1.0919520131,0.209713805646,0.340856220568,0.341,0.45,1,1,2,500,2
0.359759617386,0.17650273981,1.1204989385,0.384347119106,0.309,0.45,2,2,2,501,2
0.319817148245,0.23406396165,0.178413810192,1.0491188279,0.622,0.45,3,3,1,502,2
0.226795435757,1.15151140135,0.150577860531,0.380803679013,0.466,0.45,2,1,-1,503,2
0.366365015708,1.09689600072,0.0579986012042,0.349118347271,0.485,0.45,1,1,1,504,2
1.55895090634,0.237889458903,0.248945152207,0.325179906557,0.368,0.45,0,0,2,505,2
0.515333689144,0.138680418983,1.14323529195,0.351534211185,0.331,0.45,2,2,2,506,2
0.286325043991,0.167348111225,0.184603755151,1.12092497299,0.287,0.45,3,3,2,507,2
1.08606070622,0.246479321863,0.262988153282,0.426993439057,0.326,0.45,0,0,2,508,2
0.452809704721,1.01201774336,0.274727756424,0.40452693095,0.347,0.45,1,1,2,509,2
0.289091375147,0.127531253358,0.694067094559,1.11300404104,0.34,0.45,3,3,2,510,2
0.234702373717,1.18708660697,0.123605531271,0.290572048797,0.363,0.45,1,1,2,511,2
1.01184791592,0.219463643983,0.214179876286,0.320730733335,0.399,0.45,0,0,2,512,2
0.362541851809,0.18663463253,1.24119653803,0.307556918721,0.335,0.45,2,2,2,513,2
1.2588289451,0.153258931356,0.236381888292,0.356613761603,0.329,0.45,1,0,-1,514,2
0.151372568484,0.108355155871,1.02998027661,0.189435837564,0.428,0.45,2,2,2,515,2
1.13485047323,0.206461100698,0.208219348117,0.303276507359,0.367,0.45,0,0,2,516,2
0.204786253104,0.207246723831,0.212020280373,1.02218114956,0.305,0.45,3,3,2,517,2
0.267962317327,0.143871548845,1.03135799515,0.389798632027,0.363,0.45,2,2,2,518,2
0.169125287395,0.122308713885,0.0870912008584,1.01932873253,0.376,0.45,3,3,2,519,2
1.15958583282,0.199694141335,0.153104942794,0.329154917079,0.38,0.45,0,0,2,520,2
0.36611948295,1.05325118071,0.173476040023,0.306676614657,0.341,0.45,1,1,2,521,2
1.39563514517,0.21288182604,0.223654893541,0.37430860594,0.386,0.45,0,0,2,522,2
0.32432996031,0.147347110504,0.285093301978,1.08528111877,0.354,0.45,3,3,2,523,2
0.321048641966,1.04818609288,0.192368269728,0.336060940883,0.303,0.45,1,1,2,524,2
0.254102260945,0.185994390765,0.204632303243,1.0581858478,0.601,0.45,3,3,1,525,2
0.322958166085,1.11543989988,0.121299775572,0.268835656686,0.48,0.45,2,1,-1,526,2
1.0779642503,0.0365506517703,0.0907059266496,0.26566881694,0.417,0.45,0,0,2,527,2
0.421800192223,0.090278664987,1.11289360118,0.520004529718,0.355,0.45,2,2,2,528,2
0.452453706736,1.30051508045,0.199374105822,0.319546248116,0.33,0.45,1,1,2,529,2
0.338464959818,0.268373133116,0.203042756462,1.00748298259,0.27,0.45,2,3,-1,530,2
0.283537730651,0.24779409743,0.237855797027,1.03809322792,0.35,0.45,3,3,2,531,2
0.19029623731,1.09697260293,0.134782060813,0.247264847889,0.399,0.45,1,1,2,532,2
1.01998570299,0.264880218726,0.224712662878,0.321989917621,0.329,0.45,0,0,2,533,2
0.288235626513,0.132159167697,0.267308847236,1.06285511699,0.337,0.45,3,3,2,534,2
0.582736722889,1.03587098154,0.16887085446,0.208459638107,0.355,0.45,0,1,-1,535,2
0.210462192729,1.03785342348,0.190850173168,0.280195723221,0.558,0.45,1,1,1,536,2
0.259849826857,0.119324860344,0.152259894817,1.08719870435,0.445,0.45,3,3,2,537,2
0.268792558861,0.0965266228536,1.09403989029,0.302022386253,0.395,0.45,2,2,2,538,2
1.2269896293,0.185874605773,0.239643974841,0.373492430589,0.43,0.45,0,0,2,539,2
0.211526573959,0.080474937001,1.10460693559,0.337283040525,0.357,0.45,2,2,2,540,2
0.248512097961,1.22761115618,0.133774206095,0.272736431875,0.327,0.45,1,1,2,541,2
0.234344402275,0.241652906063,1.29326400432,0.303819524701,0.391,0.45,2,2,2,542,2
0.271611183587,1.03075501212,0.214439566174,0.303263322996,0.379,0.45,1,1,2,543,2
0.410002663837,0.19166625957,0.241320126511,1.03473110493,0.356,0.45,3,3,2,544,2
1.10747760725,0.196235650966,0.126743558624,0.214976729956,0.352,0.45,0,0,2,545,2
0.376588466587,1.10868844164,0.201552307219,0.289391688116,0.385,0.45,1,1,2,546,2
1.21476679339,0.188192255271,0.230454851173,0.376853017078,0.381,0.45,0,0,2,547,2
0.231170862598,0.141663165431,0.218597515728,1.26042925123,0.351,0.45,3,3,2,548,2
0.39738259289,1.1421780519,0.169262948738,0.311553073359,0.319,0.45,1,1,2,549,2
0.441202899759,0.301231624859,1.08671204424,0.369125359069,0.343,0.45,2,2,2,550,2
1.22576903572,0.311615389637,0.143310765075,0.324838436776,0.281,0.45,0,0,2,551,2
0.561717274582,0.417806860678,1.10033266862,0.310433573477,0.327,0.45,2,2,2,552,2
0.297204288198,0.331512110561,0.185700613826,1.01111848824,0.418,0.45,3,3,2,553,2
0.180325525284,0.222271224607,1.10879528374,0.313205627277,0.401,0.45,2,2,2,554,2
1.37079245971,0.234503049016,0.242583107407,0.510686533122,0.374,0.45,0,0,2,555,2
0.478021646097,1.0030371495,0.264154497756,0.579417770941,0.361,0.45,1,1,2,556,2
0.212990758186,0.132702916872,0.300085328584,1.04884890433,0.403,0.45,3,3,2,557,2
1.09053851839,0.149433524342,0.208029422109,0.428329544146,0.405,0.45,0,0,2,558,2
0.174723986185,0.101102807902,0.217792165233,1.23885191002,0.477,0.45,3,3,1,559,2
0.283146504472,1.14453130143,0.23488971145,0.38700092009,0.407,0.45,1,1,2,560,2
0.453637590956,0.331829555798,1.09364125583,0.42186517624,0.319,0.45,2,2,2,561,2
0.365131618677,0.228081487781,0.174593463098,1.16239013498,0.395,0.45,3,3,2,562,2
0.340965254709,0.214781426126,1.02357016725,0.394599611321,0.39,0.45,2,2,2,563,2
0.421212478687,1.23938895421,0.209949378929,0.267935190087,0.388,0.45,1,1,2,564,2
1.10048348857,0.237687535159,0.256163052667,0.284765449207,0.304,0.45,0,0,2,565,2
0.249090935099,0.216420515711,1.13483398019,0.288675880329,0.311,0.45,2,2,2,566,2
0.343994318433,1.0871700268,0.246269790214,0.367779020734,0.298,0.45,1,1,2,567,2
0.325080944249,0.215415723457,0.415025106294,1.08059528681,0.535,0.45,3,3,1,568,2
1.0623421741,0.265174730669,0.204571384949,0.379735142318,0.418,0.45,0,0,2,569,2
0.421092951761,1.04709145887,0.224006832717,0.327166946145,0.385,0.45,1,1,2,570,2
1.05004038073,0.244261159228,0.302748409411,0.395873266355,0.367,0.45,0,0,2,571,2
0.414535563165,0.168403895911,0.816065322108,1.17187835222,0.381,0.45,3,3,2,572,2
0.354414660791,0.283210301689,1.04220282584,0.50349170004,0.435,0.45,2,2,2,573,2
0.285013878793,0.255573878941,0.274411387064,1.17482025888,0.438,0.45,3,3,2,574,2
0.35020023668,1.22508262091,0.196248480516,0.41120494063,0.374,0.45,1,1,2,575,2
0.401940371835,0.24068953537,1.12417787416,0.484173816473,0.375,0.45,2,2,2,576,2
1.35807492488,0.272709140695,0.293373162101,0.452648079341,0.332,0.45,0,0,2,577,2
0.451392485885,0.276557426683,1.03230552198,0.435744567877,0.333,0.45,2,2,2,578,2
0.436001708199,0.341989425347,0.165027625145,1.11727323053,0.327,0.45,3,3,2,579,2
1.26295637079,0.354015302077,0.225937737064,0.289635324412,0.334,0.45,0,0,2,580,2
0.522247699807,0.313437026431,1.07897745058,0.320447982339,0.285,0.45,1,2,-1,581,2
1.29421509173,0.294038013954,0.243288147999,0.404169732331,0.376,0.45,0,0,2,582,2
0.262276277022,0.228354667382,0.246736381367,1.27903644777,0.368,0.45,3,3,2,583,2
0.364642019196,1.13269085889,0.24972459382,0.280529720607,0.318,0.45,1,1,2,584,2
0.358192164332,0.132439589756,1.04210870809,0.412418443984,0.359,0.45,2,2,2,585,2
0.163240013153,1.12546581719,0.109776554564,0.185784113087,0.511,0.45,1,1,1,586,2
0.368508478286,0.168349983369,0.252708447437,1.00893283801,0.461,0.45,3,3,1,587,2
0.190288793093,0.184488759266,1.1827597717,0.286970149586,0.416,0.45,2,2,2,588,2
1.2171629343,0.234477149104,0.267176083031,0.414020547678,0.401,0.45,0,0,2,589,2
0.32456044049,0.260982910202,0.275549584059,1.03121545273,0.327,0.45,2,3,-1,590,2
1.08777944097,0.153069804966,0.281257997771,0.248881581173,0.417,0.45,0,0,2,591,2
0.223221532125,0.209896073529,0.303994129777,1.15861773961,0.359,0.45,3,3,2,592,2
0.355080980328,1.0278300816,0.278381936579,0.358208487944,0.376,0.45,1,1,2,593,2
0.323283506049,0.287502332217,0.308780319554,1.13445867376,0.371,0.45,3,3,2,594,2
1.22909789134,0.296855157984,0.280079550663,0.526046346857,0.406,0.45,0,0,2,595,2
0.416999300954,1.00643398186,0.305178223876,0.454043618514,0.403,0.45,1,1,2,596,2
0.370025480396,0.247913514526,1.07024184027,0.423608332154,0.376,0.45,2,2,2,597,2
0.897886680465,1.04116036961,0.31092361575,0.386005523328,0.381,0.45,1,1,2,598,2
1.39993945929,0.406881593367,0.27510449893,0.420649543374,0.378,0.45,0,0,2,599,2
0.364003585638,0.270710594216,1.00607801785,0.314689270924,0.31,0.45,2,2,2,600,2
0.416678663681,0.419740222766,0.238622419104,1.18794023149,0.346,0.45,3,3,2,601,2
0.46586152179,0.372909419445,1.05881156622,0.379721903558,0.386,0.45,2,2,2,602,2
0.30765764732,0.248977491914,0.214905770756,1.04416569389,0.358,0.45,3,3,2,603,2
0.266554255924,1.10066202195,0.228618076709,0.375952820394,0.388,0.45,1,1,2,604,2
1.02181283527,0.445171433712,0.291843244803,0.434714803119,0.388,0.45,0,0,2,605,2
0.291569060577,1.06202434535,0.281733307213,0.408384669549,0.387,0.45,1,1,2,606,2
0.469646457469,0.430260006208,0.382441752163,1.00692187197,0.372,0.45,3,3,2,607,2
1.19607809402,0.386587682947,0.29479421263,0.502578051627,0.385,0.45,0,0,2,608,2
0.40952780336,0.309820761196,0.299140526874,1.06830497402,0.36,0.45,3,3,2,609,2
0.211341223877,0.0668036312163,1.02369539266,0.45916928106,0.409,0.45,2,2,2,610,2
0.43515589119,1.12130792965,0.267657646912,0.398780548013,0.333,0.45,1,1,2,611,2
0.40639404394,0.331649998761,1.10196564849,0.290743044301,0.364,0.45,2,2,2,612,2
1.03228869956,0.39842134666,0.271181752524,0.445256285499,0.346,0.45,0,0,2,613,2
0.311893008999,0.333802250301,1.02835491756,0.427980116428,0.368,0.45,2,2,2,614,2
0.334529581247,1.05349888835,0.317852062013,0.430064659138,0.327,0.45,1,1,2,615,2
0.386039537217,0.368500070024,0.341667729342,1.08495152605,0.336,0.45,3,3,2,616,2
1.15405404535,0.43493285396,0.249870413149,0.400335701631,0.36,0.45,0,0,2,617,2
0.385515130338,0.24129782159,0.359245201152,1.19285458772,0.369,0.45,3,3,2,618,2
0.370170704555,1.08251418468,0.24407443737,0.423594630476,0.315,0.45,1,1,2,619,2
1.02079715512,0.32506627638,0.368276699177,0.593506098423,0.433,0.45,0,0,2,620,2
0.383159810138,0.264315085898,1.06185431679,0.515072623361,0.389,0.45,2,2,2,621,2
1.07410959972,0.327993593687,0.27069853409,0.455140195287,0.387,0.45,0,0,2,622,2
0.403829263292,1.19067842383,0.287998646536,0.467955964691,0.338,0.45,1,1,2,623,2
0.419355191464,0.334027443146,1.02058714186,0.410037859487,0.567,0.45,2,2,1,624,2
0.398983073757,0.297886126685,0.235183889713,1.15879408943,0.451,0.45,3,3,1,625,2
0.344909115187,0.243224923028,0.353580064864,1.00924375556,0.464,0.45,2,3,-1,626,2
0.214631444869,0.188582208909,0.277211406718,1.03936194833,0.588,0.45,3,3,1,627,2
1.56930985189,0.259737498135,0.175492656199,0.247489090304,0.411,0.45,0,0,2,628,2
0.451932398163,1.05301322409,0.199867893054,0.293497780405,0.38,0.45,1,1,2,629,2
1.21114100918,0.285707711197,0.289189210375,0.323894859303,0.45,0.45,0,0,1,630,2
0.386953962909,0.21734951496,0.272149563274,1.10379168667,0.396,0.45,3,3,2,631,2
0.470004958077,1.01967101059,0.238201737504,0.406826688394,0.279,0.45,1,1,2,632,2
0.374457921553,0.2296741245,1.04601311143,0.373014598029,0.294,0.45,2,2,2,633,2
1.28463833468,0.251593692028,0.266081269765,0.364068624233,0.267,0.45,1,0,-1,634,2
0.236765075753,0.165627785635,0.195250470802,1.20130777546,0.326,0.45,3,3,2,635,2
0.242755458871,0.264259559155,1.21854074512,0.480081840767,0.388,0.45,2,2,2,636,2
1.22520706865,0.293966300558,0.244246929269,0.360588415777,0.386,0.45,0,0,2,637,2
0.341243220493,0.266936692702,1.11944402453,0.337556519708,0.378,0.45,2,2,2,638,2
0.428765665083,1.1574463845,0.329094148411,0.358994535314,0.313,0.45,1,1,2,639,2
0.27167260833,0.247892606349,0.617310625786,1.0450600898,0.409,0.45,3,3,2,640,2
1.24680889973,0.772170461081,0.275174903753,0.422867612742,0.381,0.45,0,0,2,641,2
0.394676636907,0.187371665626,0.262282979445,1.14838716272,0.368,0.45,3,3,2,642,2
0.296009381148,1.07723054973,0.229524153007,0.362958241853,0.396,0.45,1,1,2,643,2
1.030217393,0.291556217065,0.316869354559,0.461203730923,0.331,0.45,0,0,2,644,2
0.433254935139,1.12013774663,0.286436469,0.416266896227,0.392,0.45,1,1,2,645,2
0.429441969765,0.253557399551,1.10024250636,0.473060411538,0.348,0.45,2,2,2,646,2
1.15339448062,0.287167267398,0.356520680205,0.505601953301,0.324,0.45,0,0,2,647,2
0.519955342802,0.328696375401,1.02256174464,0.448000458317,0.394,0.45,2,2,2,648,2
0.519424282071,0.283510955131,0.20507220553,1.11488967736,0.365,0.45,3,3,2,649,2
0.307669997276,0.170042392623,1.08539583591,0.190922202258,0.458,0.45,2,2,1,650,2
1.34132631558,0.287734374385,0.257712395042,0.208261339079,0.473,0.45,0,0,1,651,3
0.39949066409,0.158432734332,0.658070498311,1.13424836383,0.377,0.45,3,3,2,652,3
0.40524132067,0.219175440027,1.06564869949,0.36155965454,0.378,0.45,2,2,2,653,3
0.37460146121,1.10361254432,0.202564037178,0.307678949563,0.312,0.45,1,1,2,654,3
0.296851400138,0.17423603334,0.44144902455,1.27052360436,0.342,0.45,3,3,2,655,3
0.56190896524,1.11939782761,0.177877653273,0.449948667682,0.305,0.45,1,1,2,656,3
0.557290238191,0.475550170468,1.06604256205,0.488180103252,0.327,0.45,2,2,2,657,3
0.437103861545,0.413475435511,0.252119987252,0.454758358579,0.7,0.45,3,-1,0,659,3
1.24488214156,0.406494853069,0.239577887813,0.414569563476,0.385,0.45,0,0,2,659,3
0.30180221879,0.117195716217,1.14853506072,0.307830835424,0.332,0.45,2,2,2,660,3
1.23451616928,0.342462317993,0.372455229454,0.336182676053,0.38,0.45,0,0,2,661,3
0.704414906532,1.10840308576,0.368620842049,0.427623938992,0.401,0.45,1,1,2,662,3
1.02122077973,0.385765912939,0.311011005611,0.299538473549,0.412,0.45,0,0,2,663,3
0.45561211397,0.368501922874,1.10770766535,0.303234390103,0.345,0.45,2,2,2,664,3
0.34443168656,1.28021814042,0.232437281519,0.241048712605,0.309,0.45,1,1,2,665,3
0.384438717956,0.404030309637,0.283919073014,1.10323759896,0.252,0.45,3,3,2,666,3
0.217057293142,0.189262886196,1.13217772906,0.293966904932,0.337,0.45,2,2,2,667,3
0.310978656088,0.146879348199,0.154650456363,1.30186580483,0.354,0.45,3,3,2,668,3
0.395052333958,1.06516885972,0.253642821913,0.269070562163,0.342,0.45,1,1,2,669,3
1.03938309116,0.281514338256,0.25275755431,0.254985592824,0.297,0.45,0,0,2,670,3
0.431601173885,0.26598984304,0.265884354743,1.15788909858,0.306,0.45,3,3,2,671,3
1.11225836583,0.351039497503,0.270648876046,0.312662088358,0.372,0.45,0,0,2,672,3
0.334818535632,1.08024644425,0.249768931936,0.308269495832,0.411,0.45,1,1,2,673,3
0.326353415425,0.588929178775,1.06705264418,0.196181963111,0.406,0.45,2,2,2,674,3
1.19199182213,0.171984582137,0.23103921776,0.32086996757,0.355,0.45,0,0,2,675,3
0.607709328373,0.25942557587,1.10895522455,0.470958322679,0.324,0.45,2,2,2,676,3
0.359398765659,0.324880481811,0.301992413475,1.07978890208,0.326,0.45,3,3,2,677,3
0.376561948644,1.02837323352,0.237721990917,0.334724403951,0.278,0.45,1,1,2,678,3
0.382471401121,0.343020728181,0.295555732255,1.07296759951,0.284,0.45,3,3,2,679,3
0.361857911186,1.16141199931,0.300882732337,0.337078300128,0.263,0.45,2,1,-1,680,3
0.481865963619,1.16592130549,0.294336763547,0.46694199087,0.35,0.45,1,1,2,681,3
1.02333638448,0.341627471399,0.347138518741,0.469267214178,0.344,0.45,0,0,2,682,3
0.337906125079,0.261464509147,0.596791400222,1.06466574853,0.331,0.45,3,3,2,683,3
0.284628963556,1.01512643132,0.252447900734,0.43749172794,0.301,0.45,0,1,-1,684,3
1.15297693468,0.186622449033,0.368937086089,0.492372240513,0.449,0.45,1,0,-1,685,3
0.235487031036,0.212315219236,1.10578400252,0.511023166301,0.413,0.45,2,2,2,686,3
1.11701383572,0.354592700024,0.343524195152,0.560822564494,0.344,0.45,0,0,2,687,3
0.347336708209,1.01904022386,0.28740177027,0.47879910294,0.328,0.45,2,1,-1,688,3
0.346750447318,0.137330281464,0.27825320533,1.05661147351,0.346,0.45,3,3,2,689,3
0.427949723182,1.0652817682,0.264719985364,0.382491044099,0.28,0.45,1,1,2,690,3
0.381898901592,0.254384408424,1.06870667493,0.354745433334,0.257,0.45,2,2,2,691,3
0.41456874548,0.283651572821,0.26641403379,1.03575333536,0.227,0.45,1,3,-1,692,3
0.435507510688,0.330349735873,0.288051884941,1.20626409859,0.373,0.45,3,3,2,693,3
0.31635392543,0.220314561109,1.25135942783,0.306352747779,0.382,0.45,2,2,2,694,3
1.12531747668,0.238667862408,0.29623365813,0.363665373588,0.34,0.45,0,0,2,695,3
0.358495114402,0.0885629111859,0.179515090397,1.15524493251,0.338,0.45,3,3,2,696,3
1.20845952041,0.257663496047,0.33332294993,0.288314995761,0.369,0.45,0,0,2,697,3
0.576543954589,1.06880445057,0.38928696916,0.448961009024,0.389,0.45,1,1,2,698,3
1.32672014447,0.29193100754,0.351416947041,0.448720661163,0.421,0.45,0,0,2,699,3
0.492384533033,1.11488337686,0.335205644316,0.40339674676,0.354,0.45,1,1,2,700,3
0.464548404725,0.258380263325,1.04978033485,0.417420469836,0.318,0.45,2,2,2,701,3
0.47549303391,0.304049516151,0.290493295977,1.01865209846,0.314,0.45,3,3,2,702,3
0.49337954966,1.06870646106,0.240898721995,0.300659912828,0.309,0.45,1,1,2,703,3
0.496473460948,0.246562670168,1.07635430836,0.51016495364,0.32,0.45,3,2,-1,704,3
0.278175829395,0.204289941861,1.08373887731,0.500466923322,0.35,0.45,2,2,2,705,3
0.264748592872,1.09574544485,0.288006788994,0.458203259188,0.341,0.45,1,1,2,706,3
1.40512379916,0.242912501566,0.329550729293,0.490860165278,0.298,0.45,0,0,2,707,3
0.433262742705,0.25128430664,0.359690533748,1.025353243,0.324,0.45,2,3,-1,708,3
0.369874278004,1.0345209024,0.230540508225,0.359520523362,0.336,0.45,0,1,-1,709,3
0.287350371606,0.0549593269465,0.228072966178,1.11344655925,0.372,0.45,3,3,2,710,3
1.20547485546,0.162842770264,0.221742384122,0.392818918547,0.342,0.45,0,0,2,711,3
0.399475774254,0.125711696384,1.14026540868,0.434801666578,0.342,0.45,2,2,2,712,3
0.309911029677,0.128890545713,0.180056094951,1.08413121285,0.371,0.45,3,3,2,713,3
0.363988019559,1.05836850679,0.198782351961,0.244950916455,0.333,0.45,1,1,2,714,3
0.434723519561,0.25597653397,1.06913753363,0.431333112265,0.317,0.45,2,2,2,715,3
0.389142649916,1.04197394171,0.154771284988,0.327187617409,0.383,0.45,1,1,2,716,3
0.278791293156,0.174448879799,0.151678204404,1.07124656198,0.372,0.45,3,3,2,717,3
1.08817376476,0.278375237635,0.216124354961,0.375918409015,0.306,0.45,0,0,2,718,3
0.614831547746,1.02621134214,0.274252737018,0.374514952312,0.362,0.45,1,1,2,719,3
1.03682911269,0.374711744027,0.332842824544,0.529585754163,0.356,0.45,0,0,2,720,3
0.351311116522,0.294130701882,0.31846367224,1.09747565983,0.344,0.45,3,3,2,721,3
0.286531190652,0.223755414197,1.16527022572,0.490168743254,0.379,0.45,2,2,2,722,3
1.06476582825,0.325044980915,0.234515240904,0.432516098928,0.372,0.45,0,0,2,723,3
0.439991061974,0.26518049175,0.239817846344,1.05416872919,0.325,0.45,3,3,2,724,3
0.395773429465,1.04212221039,0.224820171349,0.35720652855,0.276,0.45,1,1,2,725,3
0.437336761505,0.234107135864,1.13811467076,0.462496514465,0.318,0.45,2,2,2,726,3
1.20773774693,0.186368791597,0.216410132874,0.353576013987,0.278,0.45,1,0,-1,727,3
0.220107984998,0.111388420736,0.139218840772,1.00353875528,0.351,0.45,3,3,2,728,3
0.326479845894,0.379240186309,1.11521082376,0.31108600134,0.413,0.45,2,2,2,729,3
1.07302617917,0.889788993941,0.228621299317,0.335524104441,0.395,0.45,0,0,2,730,3
0.489520588924,0.0790116349404,1.08590746009,0.476935024538,0.337,0.45,2,2,2,731,3
0.337853692399,0.141799796124,0.156670993798,1.09845876506,0.34,0.45,3,3,2,732,3
1.34078643019,0.161752893153,0.186649832301,0.30509526579,0.351,0.45,0,0,2,733,3
0.383809875067,1.13383142312,0.201426925736,0.283190372234,0.399,0.45,1,1,2,734,3
1.2934400536,0.106603909562,0.274299974997,0.399089660143,0.457,0.45,0,0,1,735,3
0.285094780392,0.114898636182,0.21298455068,1.11399310771,0.441,0.45,3,3,2,736,3
0.353770950258,1.09333134147,0.219064325803,0.28061298369,0.332,0.45,1,1,2,737,3
0.388670671801,0.269293071159,1.0041356619,0.337104364596,0.298,0.45,2,2,2,738,3
1.04912045273,0.28138655915,0.251626529822,0.346939351668,0.306,0.45,1,0,-1,739,3
0.178301999202,0.238879844357,0.268358032695,1.16565811254,0.373,0.45,3,3,2,740,3
0.226721909016,0.212910506377,1.00537855699,0.372431931138,0.372,0.45,2,2,2,741,3
0.213268012381,0.19333863527,0.198701097161,1.13151223694,0.388,0.45,3,3,2,742,3
1.1800749388,0.194735689099,0.23348853784,0.334925479816,0.357,0.45,0,0,2,743,3
0.251224249938,1.03176801647,0.204585640165,0.302197452776,0.33,0.45,1,1,2,744,3
1.26146703517,0.290373039813,0.232912168882,0.449224846494,0.386,0.45,0,0,2,745,3
0.289250911605,0.245057548648,1.1031157916,0.388160476704,0.345,0.45,2,2,2,746,3
0.30993701688,1.12320117562,0.250174098677,0.398085643825,0.354,0.45,0,1,-1,747,3
0.338999040259,0.144630797604,1.0572811943,0.461623374011,0.388,0.45,2,2,2,748,3
0.318613342213,0.179779253051,0.277864592209,1.25731346,0.332,0.45,3,3,2,749,3
0.319725685785,1.17076783516,0.243789942434,0.29577819816,0.331,0.45,1,1,2,750,3
0.330238813221,0.193785467557,1.19274108696,0.464400339853,0.404,0.45,2,2,2,751,3
0.234404224207,1.1108029725,0.293715330489,0.342524882289,0.422,0.45,1,1,2,752,3
0.30580161116,0.177476888051,0.279268747496,1.14811313841,0.387,0.45,3,3,2,753,3
0.293743903227,0.129300399197,1.07071277984,0.306267523057,0.377,0.45,2,2,2,754,3
1.2275533689,0.104835996266,0.228418782005,0.273907095207,0.394,0.45,0,0,2,755,3
0.311247135512,0.146457751066,0.343980798383,1.11051711955,0.415,0.45,3,3,2,756,3
1.28816443757,0.201685318736,0.23643941234,0.475571763582,0.39,0.45,0,0,2,757,3
0.329210740924,1.06654675562,0.247156163195,0.375268141269,0.396,0.45,1,1,2,758,3
1.38509660609,0.207901205435,0.260917066916,0.39004190322,0.374,0.45,0,0,2,759,3
0.392760837306,0.186947155327,1.0861318355,0.3808080775,0.327,0.45,2,2,2,760,3
0.343760073646,1.06925574697,0.228264300584,0.35463994131,0.367,0.45,1,1,2,761,3
0.327208319985,0.237952634649,0.320443745172,1.20111652963,0.315,0.45,3,3,2,762,3
0.374974187786,1.05057967042,0.334534665439,0.377868420263,0.351,0.45,1,1,2,763,3
0.279206334367,0.221828101101,1.08366863152,0.369439156122,0.388,0.45,2,2,2,764,3
0.324311360161,0.261318664919,0.248739991051,0.700856579668,0.7,0.45,3,-1,0,766,3
0.269311586774,0.204244881941,0.220163600281,1.13106544762,0.0390000000004,0.45,0,3,-1,766,3
0.257484996197,0.174459953862,0.218618055748,1.31927881769,0.415,0.45,3,3,2,767,3
0.272296923733,0.19816592361,1.03623252975,0.387212139593,0.425,0.45,2,2,2,768,3
1.0654574248,0.192375815798,0.218794578104,0.353629013152,0.298,0.45,0,0,2,769,3
0.234847714896,1.05928540419,0.22481246902,0.345546226491,0.315,0.45,1,1,2,770,3
1.2606650098,0.267591847975,0.291546126025,0.35791482274,0.381,0.45,0,0,2,771,3
0.247958688712,0.209974194202,0.261092663641,1.08211377534,0.523,0.45,3,3,1,772,3
0.338748583639,0.185174728365,0.0886143583413,1.01379263797,0.0850000000004,0.45,1,3,-1,773,3
0.32304464979,0.199303218621,1.10967127512,0.291491535491,0.373,0.45,2,2,2,774,3
0.193959934183,0.147285122191,0.208170801548,1.19726072854,0.387,0.45,3,3,2,775,3
0.139135578001,0.132360163157,1.28319357999,0.352224580819,0.387,0.45,2,2,2,776,3
0.280036280475,1.143429856,0.192681088964,0.162921898723,0.312,0.45,1,1,2,777,3
0.18963557696,0.196905692036,0.250662809495,1.23078688954,0.346,0.45,3,3,2,778,3
1.30535215682,0.538967838088,0.165707937422,0.290271894891,0.348,0.45,0,0,2,779,3
0.550828441857,1.12142345038,0.252918638037,0.252349429354,0.367,0.45,1,1,2,780,3
1.23648392858,0.232323201694,0.278432701758,0.285360785962,0.35,0.45,0,0,2,781,3
0.45104141985,0.3215784005,1.07124034884,0.359655102346,0.322,0.45,2,2,2,782,3
1.16352921178,0.362554325571,0.224339605023,0.250470084705,0.353,0.45,0,0,2,783,3
0.415397657935,0.311727038744,0.300527784429,1.01883165994,0.348,0.45,3,3,2,784,3
0.417803472901,1.09165888512,0.219121600921,0.223867039078,0.281,0.45,1,1,2,785,3
0.330049563257,0.243498061492,1.07068738742,0.271275555238,0.32,0.45,2,2,2,786,3
0.278139856067,0.254923306064,0.201393604775,1.05516780764,0.315,0.45,3,3,2,787,3
0.265252475884,0.213048716779,0.568261233203,1.0117192696,0.371,0.45,2,3,-1,788,3
0.237597295958,1.15121096373,0.163800077277,0.138143421841,0.319,0.45,1,1,2,789,3
0.378390716544,0.281045822375,1.02607468372,0.312492547371,0.339,0.45,3,2,-1,790,3
1.05949725121,0.232129438606,0.402876700078,0.372802009731,0.364,0.45,0,0,2,791,3
1.1309469526,0.23816163526,0.314643244637,0.298286553579,0.354,0.45,1,0,-1,792,3
1.34175407129,0.257114144897,0.26954018487,0.258640658708,0.37,0.45,0,0,2,793,3
0.298203715388,0.087063119907,1.1410194289,0.246534466815,0.364,0.45,2,2,2,794,3
1.25271082525,0.308295376479,0.345449192924,0.381688624328,0.402,0.45,0,0,2,795,3
0.470680403517,0.294395638365,1.06491575371,0.378270361115,0.309,0.45,2,2,2,796,3
0.378539932777,0.206782545888,0.224100915964,1.00345355702,0.435,0.45,3,3,2,797,3
0.253343751963,1.20819781504,0.224347171643,0.256968614644,0.372,0.45,1,1,2,798,3
0.257461504378,0.206174831717,1.08277600034,0.232755803783,0.33,0.45,2,2,2,799,3
0.226394550545,1.10228606428,0.222380929424,0.242089397233,0.345,0.45,1,1,2,800,3
0.357429008106,0.138532219019,0.1774685554,1.09698482866,0.356,0.45,3,3,2,801,3
0.308768506043,0.137987653489,1.10109146354,0.208263598384,0.356,0.45,2,2,2,802,3
1.17793190643,0.22983798748,0.23080867213,0.291593954784,0.362,0.45,0,0,2,803,3
0.33174558191,0.186468880309,0.256583619331,1.05604445474,0.402,0.45,3,3,2,804,3
1.04710175444,0.254589342474,0.244945205338,0.242679348039,0.374,0.45,0,0,2,805,3
0.460169750256,1.1447353944,0.314967536102,0.429661946269,0.371,0.45,1,1,2,806,3
1.37674038895,0.29060229132,0.346832939507,0.43249367874,0.38,0.45,0,0,2,807,3
0.407849126628,0.211855613442,1.08118918376,0.38078294629,0.348,0.45,2,2,2,808,3
0.264920775351,0.159143636617,0.222979233483,1.06297953436,0.352,0.45,3,3,2,809,3
0.283243721932,1.10444990663,0.210674288729,0.239166486889,0.321,0.45,1,1,2,810,3
0.276437824168,0.180250786852,0.192002692966,1.00377332285,0.313,0.45,3,3,2,811,3
0.340950996986,0.209999403269,1.04100995396,0.321332422496,0.349,0.45,2,2,2,812,3
0.287665666434,1.13892821667,0.205303880435,0.243110769231,0.371,0.45,1,1,2,813,3
0.324098850977,0.155580531899,1.10739396415,0.332460287352,0.336,0.45,2,2,2,814,3
1.22984604094,0.263703302636,0.273552426494,0.306611603012,0.363,0.45,0,0,2,815,3
0.288717725717,1.09231832601,0.223275511473,0.273952009812,0.368,0.45,1,1,2,816,3
1.1948582688,0.219676302363,0.332987860298,0.419017387427,0.375,0.45,0,0,2,817,3
0.197997431685,0.102541524116,0.346049020053,1.01052665488,0.372,0.45,3,3,2,818,3
1.08382262791,0.271508140437,0.203796025487,0.270845899562,0.368,0.45,0,0,2,819,3
0.282854234811,1.09912294451,0.242291779896,0.32337895335,0.398,0.45,1,1,2,820,3
0.208353958138,0.137147733253,0.209576239796,1.10871993438,0.329,0.45,3,3,2,821,3
0.316186478292,0.218720126805,1.05750836708,0.368906420528,0.356,0.45,2,2,2,822,3
0.159317366844,0.112175854861,0.118367470548,1.11755122638,0.392,0.45,3,3,2,823,3
0.304521301247,1.20409593702,0.261041105311,0.399110962644,0.351,0.45,1,1,2,824,3
0.199366689299,0.125414347037,1.1261507104,0.322531757983,0.346,0.45,2,2,2,825,3
0.304714820155,1.03341026096,0.184152261981,0.351233407479,0.407,0.45,1,1,2,826,3
1.3263534884,0.178456005265,0.271460045108,0.490364082861,0.334,0.45,0,0,2,827,3
0.265502711755,0.132186429917,0.219919263686,1.07447422663,0.36,0.45,3,3,2,828,3
1.21486693704,0.198067903744,0.227222757725,0.297323553681,0.417,0.45,0,0,2,829,3
0.316983986927,0.15645817829,1.15167603524,0.328591882637,0.345,0.45,2,2,2,830,3
1.11705854575,0.157358878014,0.239795444173,0.273376488017,0.338,0.45,0,0,2,831,3
0.320811364066,0.207447536471,0.291875056496,1.14977588471,0.346,0.45,3,3,2,832,3
0.288965226934,1.36702937962,0.250342261569,0.299848256894,0.298,0.45,1,1,2,833,3
0.322360801467,0.249059829917,1.08815965979,0.298103502648,0.288,0.45,2,2,2,834,3
0.216239653186,0.14412084005,0.186195162883,1.05737276632,0.387,0.45,3,3,2,835,3
0.184640524689,0.128455501302,1.03417312039,0.181233803395,0.436,0.45,2,2,2,836,3
0.215844053093,1.08868994592,0.209503515059,0.22045959536,0.374,0.45,1,1,2,837,3
0.293417906254,0.215502345716,0.273470362015,1.10322125274,0.329,0.45,3,3,2,838,3
1.14576401077,0.243640184014,0.266683138029,0.28918041315,0.327,0.45,0,0,2,839,3
0.355528563598,1.06976630223,0.256172849389,0.260414438167,0.436,0.45,1,1,2,840,3
1.02168128508,0.226842086425,0.237316196285,0.272657938674,0.426,0.45,0,0,2,841,3
0.274394876196,0.226731725356,1.08871473592,0.263440949537,0.39,0.45,2,2,2,842,3
1.2230207513,0.670924499389,0.223058689848,0.396361759439,0.429,0.45,0,0,2,843,3
0.221549007165,0.0441850594661,0.197202705212,1.0864044229,0.353,0.45,3,3,2,844,3
0.224581084126,0.135229195163,1.01520050593,0.315745270542,0.306,0.45,2,2,2,845,3
0.217648094942,1.18100750306,0.182189073628,0.260674347116,0.317,0.45,1,1,2,846,3
0.151732852991,0.108682460019,1.1325161612,0.231207640716,0.348,0.45,2,2,2,847,3
0.261589121689,0.197244262283,0.214491884908,1.04828626277,0.315,0.45,3,3,2,848,3
0.253597687172,1.08524562742,0.235910845204,0.310143525441,0.324,0.45,1,1,2,849,3
1.07598028586,0.213873447925,0.264688506586,0.279874914195,0.348,0.45,0,0,2,850,3
0.35200018653,0.178568378119,1.09455089191,0.228924317633,0.349,0.45,2,2,2,851,3
1.10857711731,0.148154394677,0.173851256058,0.234455022694,0.389,0.45,0,0,2,852,3
0.177342573077,1.02806177774,0.21350527399,0.371807383185,0.442,0.45,1,1,2,853,3
0.289483030448,0.211942777494,0.258350419922,1.14851830996,0.327,0.45,3,3,2,854,3
1.3659821082,0.195213354714,0.207597126708,0.279649984201,0.316,0.45,0,0,2,855,3
0.173562083801,1.08645734696,0.202308715146,0.259784600031,0.431,0.45,1,1,2,856,3
0.15698720057,0.130126568898,0.194036928451,1.18295342831,0.392,0.45,3,3,2,857,3
0.269232379762,0.157862934379,1.04504149424,0.329355882183,0.349,0.45,2,2,2,858,3
0.212850685867,1.01761055272,0.196889867715,0.381356003875,0.308,0.45,1,1,2,859,3
0.241389655241,0.124196112785,1.03424347016,0.357099548867,0.302,0.45,2,2,2,860,3
0.200061300517,0.123132286081,0.183089828351,1.04865308229,0.352,0.45,3,3,2,861,3
1.17936254927,0.197561442617,0.18819725736,0.316244535304,0.354,0.45,0,0,2,862,3
0.190581063778,0.122349879348,0.206568442389,1.08274272187,0.32,0.45,3,3,2,863,3
0.397761656446,1.13660575023,0.183362216583,0.316541257559,0.316,0.45,1,1,2,864,3
1.11415415029,0.250517187139,0.254578846381,0.420606970062,0.355,0.45,0,0,2,865,3
0.305768223042,0.207868246233,1.092354441,0.363134789091,0.324,0.45,2,2,2,866,3
0.592084581917,1.12782627863,0.212840137773,0.335227287372,0.377,0.45,0,1,-1,867,3
0.302758063177,0.21165925998,1.2501873963,0.222984511692,0.436,0.45,2,2,2,868,4
1.24490575192,0.204062826957,0.148858713511,0.165382156395,0.403,0.45,0,0,2,869,4
0.216880306303,0.1893787935,0.129010454338,1.00031487701,0.361,0.45,3,3,2,870,4
0.133319984166,1.12865966104,0.17456350804,0.155051051038,0.391,0.45,1,1,2,871,4
1.18550324924,0.230981551635,0.231650759181,0.159174097137,0.309,0.45,0,0,2,872,4
0.399457559564,1.06927690699,0.279405032496,0.217850478576,0.388,0.45,1,1,2,873,4
0.367545861448,0.215403522659,0.256048551624,1.10094388642,0.354,0.45,3,3,2,874,4
1.03031652856,0.40385095149,0.27483591012,0.295574008771,0.336,0.45,0,0,2,875,4
0.467459197995,0.335293752344,1.1437195809,0.352318995362,0.29,0.45,2,2,2,876,4
0.336009221814,0.267558438374,0.179951238265,1.05939423338,0.313,0.45,3,3,2,877,4
0.253886529622,0.114181304195,1.09109878162,0.356134482971,0.645,0.45,2,2,1,878,4
0.183007027605,1.15405753796,0.109042547897,0.181201704015,0.469,0.45,1,1,1,879,4
0.336225489756,0.0826371619477,1.12429495056,0.250203833745,0.421,0.45,2,2,2,880,4
0.404735230253,1.03827874387,0.234492442047,0.258477707374,0.324,0.45,1,1,2,881,4
1.19609101824,0.284710062595,0.256624676553,0.289910506242,0.36,0.45,0,0,2,882,4
0.357142575223,0.244233288099,0.241482182877,1.02324302602,0.36,0.45,3,3,2,883,4
0.468549486677,1.19900466259,0.28445225323,0.289740141016,0.313,0.45,1,1,2,884,4
0.463405224911,0.301781275674,0.754328546801,1.25427624831,0.327,0.45,3,3,2,885,4
1.2826503177,0.321288836856,0.195681345447,0.287176690292,0.363,0.45,0,0,2,886,4
0.387756677126,1.05051128591,0.234914041423,0.338252769442,0.364,0.45,1,1,2,887,4
0.305545020293,0.600208228773,1.17518407798,0.214218964545,0.402,0.45,2,2,2,888,4
1.40700028146,0.224286024532,0.178578525465,0.359304518529,0.337,0.45,0,0,2,889,4
0.272312956223,0.168336474119,0.212236983303,1.08706262604,0.321,0.45,2,3,-1,890,4
0.285640042191,0.307163963269,0.374367745167,1.0447165404,0.361,0.45,3,3,2,891,4
0.371368458695,0.226434125606,1.02461741318,0.237393887038,0.348,0.45,2,2,2,892,4
0.375484525279,1.01957551861,0.22000609917,0.247950460051,0.32,0.45,1,1,2,893,4
0.313180621882,0.217778932799,1.16480169013,0.267793321161,0.309,0.45,3,2,-1,894,4
1.09075740881,0.27717106651,0.220507503839,0.245975533743,0.354,0.45,0,0,2,895,4
1.18187280449,0.316915172098,0.331516214454,0.303895936343,0.347,0.45,1,0,-1,896,4
1.067341218,0.270733721995,0.317457609188,0.375928635901,0.432,0.45,0,0,2,897,4
0.320192203275,0.262164893306,0.336085592427,1.26671574409,0.358,0.45,3,3,2,898,4
0.327118525544,1.05554576771,0.250099798804,0.219995595836,0.289,0.45,1,1,2,899,4
0.293268846908,0.229579978248,1.05860474555,0.307773897342,0.325,0.45,2,2,2,900,4
0.297178348064,0.224899831224,0.236568859361,1.06432525205,0.32,0.45,3,3,2,901,4
0.227341016846,0.157746379208,1.13483396175,0.215699906797,0.384,0.45,2,2,2,902,4
1.05219049467,0.211455607719,0.253926971387,0.390258308497,0.355,0.45,0,0,2,903,4
0.449451249437,0.246689764317,1.16692599926,0.389028158272,0.28,0.45,2,2,2,904,4
0.360484244303,0.239792570529,0.221871560838,1.01038235347,0.364,0.45,3,3,2,905,4
1.07357973138,0.228304350478,0.226923255989,0.246993351285,0.418,0.45,0,0,2,906,4
0.413866296602,1.20685598407,0.197826899516,0.280896836854,0.347,0.45,1,1,2,907,4
0.283827775179,0.222043313586,0.208377745609,1.09641795519,0.326,0.45,3,3,2,908,4
0.420244829826,1.14768804752,0.2106303294,0.213094476383,0.287,0.45,1,1,2,909,4
1.2338131037,0.30173751514,0.276773426374,0.27825843236,0.359,0.45,0,0,2,910,4
0.435698053128,0.314866015299,1.1744407128,0.437301559088,0.329000000001,0.45,2,2,2,911,4
1.24643750087,0.322332544789,0.230847792772,0.319448884695,0.394000000001,0.45,0,0,2,912,4
0.354170855432,0.213282264917,0.239167902055,1.21565630726,0.333000000001,0.45,3,3,2,913,4
0.311544761543,0.171103335115,1.09788837271,0.267943257553,0.385000000001,0.45,2,2,2,914,4
0.340997814488,1.14808935901,0.250162539745,0.335348604156,0.352000000001,0.45,1,1,2,915,4
0.277706469708,0.149692877659,1.13276063484,0.233137246033,0.374000000001,0.45,2,2,2,916,4
0.262705985243,1.11924835219,0.299204750461,0.396767467765,0.367000000001,0.45,1,1,2,917,4
1.46263894618,0.32327239725,0.386228440371,0.563231224628,0.341000000001,0.45,0,0,2,918,4
0.373033715138,0.308149612169,0.36537866007,1.17108323235,0.331000000001,0.45,3,3,2,919,4
0.384673211498,1.06485122122,0.364673489184,0.294611264357,0.312000000001,0.45,0,1,-1,920,4
0.501002394282,1.10695300849,0.343939396703,0.300947458287,0.399000000001,0.45,1,1,2,921,4
0.368804853873,0.241429697587,0.32888756503,1.05662640547,0.409000000001,0.45,3,3,2,922,4
0.22889844271,0.222325280605,1.05997756901,0.317234279429,0.383000000001,0.45,2,2,2,923,4
1.12222488628,0.416253813894,0.276675520865,0.414009263646,0.385000000001,0.45,0,0,2,924,4
0.455422610298,0.407983015562,1.0059556512,0.391019555961,0.349000000001,0.45,2,2,2,925,4
0.391128774477,0.333167076159,0.258332682152,1.17035507141,0.336000000001,0.45,3,3,2,926,4
0.451917987801,1.18420378318,0.306167730239,0.442859324749,0.348000000001,0.45,1,1,2,927,4
0.452902391275,0.305138783116,1.08920941641,0.588512164288,0.340000000001,0.45,2,2,2,928,4
1.01891849707,0.282707416694,0.270338804997,0.43467421603,0.335000000001,0.45,0,0,2,929,4
0.515696560763,0.338901184549,0.324368212298,1.09837064673,0.308000000001,0.45,3,3,2,930,4
0.449078573541,1.1241677561,0.305799019566,0.341251987662,0.274000000001,0.45,1,1,2,931,4
1.26962115322,0.34775561919,0.277503989543,0.292391875725,0.354000000001,0.45,0,0,2,932,4
1.09363631572,0.384430753042,0.347450645513,0.377017188092,0.366000000001,0.45,1,0,-1,933,4
0.189895423524,0.352523330698,0.356353497455,1.0648070377,0.346000000001,0.45,3,3,2,934,4
1.40328457741,0.336184999662,0.301172092693,0.29460206151,0.348000000001,0.45,0,0,2,935,4
0.468624189669,0.348082214069,1.18062547692,0.433505925172,0.289000000001,0.45,2,2,2,936,4
0.361134542638,0.325058168703,0.2609875264,1.12359628347,0.312000000001,0.45,3,3,2,937,4
0.325407317329,0.340922814818,1.06531448329,0.314038757311,0.353000000001,0.45,2,2,2,938,4
0.344944850923,1.04343433371,0.254685950326,0.20818287146,0.328000000001,0.45,1,1,2,939,4
0.37137167842,0.282753104964,1.03605420217,0.308047507972,0.335000000001,0.45,2,2,2,940,4
0.359402332356,1.19485055299,0.252622104078,0.220745006935,0.310000000001,0.45,1,1,2,941,4
0.343378849298,0.257602372918,0.266866858749,1.22905081248,0.344000000001,0.45,3,3,2,942,4
1.32711601339,0.338391226088,0.25583014334,0.301343350195,0.317000000001,0.45,0,0,2,943,4
0.356141431151,0.269231825688,0.518091547794,1.10562299209,0.580000000001,0.45,3,3,1,944,4
0.489924184435,1.13202133271,0.204036858377,0.315490096858,0.449000000001,0.45,1,1,2,945,4
1.10324416829,0.280242313849,0.253413540241,0.300292148191,0.368000000001,0.45,0,0,2,946,4
0.341779039881,0.319043889553,1.25523900042,0.32981558863,0.344000000001,0.45,2,2,2,947,4
1.33471752858,0.34505552751,0.205882407708,0.297289615206,0.346000000001,0.45,0,0,2,948,4
0.531434740576,1.18217726649,0.287668593373,0.368180811416,0.350000000001,0.45,1,1,2,949,4
0.398384249981,0.356960302704,0.285750872316,1.09089039689,0.317000000001,0.45,2,3,-1,950,4
0.270156599371,0.182203354768,0.349776442504,1.15666587922,0.405000000001,0.45,3,3,2,951,4
0.308374326535,0.336668665423,1.12283176443,0.279964722922,0.334000000001,0.45,2,2,2,952,4
0.356893766843,0.310660248163,0.276212982738,1.10130534016,0.361000000001,0.45,3,3,2,953,4
0.324599783323,1.02102989439,0.303256510808,0.212386169333,0.356000000001,0.45,0,1,-1,954,4
1.14145564019,0.234034805846,0.356845970839,0.387891997594,0.390000000001,0.45,1,0,-1,955,4
1.30550096343,0.288127800308,0.311478835701,0.362620407167,0.403000000001,0.45,0,0,2,956,4
0.390588659238,0.279364764095,0.360804097677,1.30381589626,0.345000000001,0.45,3,3,2,957,4
0.325575313406,1.13772718013,0.305216907331,0.225800113651,0.323000000001,0.45,1,1,2,958,4
0.198290593816,0.221602552603,0.278649908498,1.03486780612,0.326000000001,0.45,3,3,2,959,4
0.329848064354,0.279518012088,1.15142792459,0.321347086541,0.349000000001,0.45,2,2,2,960,4
0.347156445755,1.00986955253,0.260743564341,0.378636897042,0.344000000001,0.45,1,1,2,961,4
0.278463965948,0.0545967650998,1.22125285768,0.308390187614,0.411000000001,0.45,2,2,2,962,4
1.04710766652,0.299950120689,0.376110665384,0.289311492454,0.389000000001,0.45,0,0,2,963,4
0.470811921944,0.404116356809,1.04433769973,0.344706814968,0.310000000001,0.45,2,2,2,964,4
1.33862376396,0.482686002778,0.318601312515,0.251770056698,0.385000000001,0.45,0,0,2,965,4
0.436309081674,0.216683333885,0.340984521278,1.16814213947,0.352000000001,0.45,3,3,2,966,4
1.24647161149,0.266842949065,0.298653246953,0.292556629714,0.345000000001,0.45,1,0,-1,967,4
1.11500781473,0.324610732512,0.367976244106,0.336135467607,0.342000000001,0.45,0,0,2,968,4
0.334599283928,1.11252556125,0.329189332506,0.313469234635,0.374000000001,0.45,1,1,2,969,4
0.364434300611,0.294171564794,0.272794377961,1.05692045436,0.315000000001,0.45,3,3,2,970,4
1.369055336,0.235940993417,0.21655277719,0.187867039353,0.313000000001,0.45,0,0,2,971,4
0.31984531258,0.216744953046,1.17322098164,0.358749815025,0.331000000001,0.45,2,2,2,972,4
0.368230181838,0.226960095196,0.209183875937,1.26169954548,0.332000000001,0.45,3,3,2,973,4
0.321323918495,0.098973769168,1.0964587283,0.209370073373,0.397000000001,0.45,2,2,2,974,4
0.375042229269,1.23922097422,0.312263528987,0.25075408748,0.327000000001,0.45,1,1,2,975,4
0.347465897461,0.144927819605,1.06777375841,0.301884785096,0.342000000001,0.45,2,2,2,976,4
0.39034267558,0.227457200906,0.245792984865,1.04569181613,0.356000000001,0.45,3,3,2,977,4
1.04818365251,0.274652162024,0.246954570408,0.272833559998,0.337000000001,0.45,0,0,2,978,4
0.513745226148,1.11436773751,0.28530332896,0.408422879314,0.369000000001,0.45,1,1,2,979,4
1.25663560218,0.404032736342,0.30112888823,0.415606231052,0.413000000001,0.45,0,0,2,980,4
0.358296571539,0.268786439819,0.337904913473,1.02004507644,0.367000000001,0.45,3,3,2,981,4
0.391555424009,1.10141201682,0.240501133919,0.297623179868,0.305000000001,0.45,1,1,2,982,4
0.397970877598,0.270710138835,1.07984676603,0.34137219665,0.301000000001,0.45,2,2,2,983,4
1.00520063437,0.317520963747,0.22727251929,0.375312974347,0.297000000001,0.45,1,0,-1,984,4
0.159286951793,0.287963875036,0.282050256869,1.07922858025,0.343000000001,0.45,3,3,2,985,4
0.169676071038,0.559568252178,1.13161941104,0.243337773643,0.393000000001,0.45,2,2,2,986,4
1.33824432218,0.190226398489,0.25499878655,0.290836525039,0.364000000001,0.45,0,0,2,987,4
0.322152630617,0.195756492316,1.0292540699,0.324025364847,0.327000000001,0.45,2,2,2,988,4
0.321642884782,1.0336114701,0.269670357484,0.262082244215,0.330000000001,0.45,1,1,2,989,4
1.29427555622,0.31705159332,0.34895517427,0.498251540584,0.346000000001,0.45,0,0,2,990,4
0.283916278402,0.228254934935,0.716475305687,1.02905132236,0.362000000001,0.45,3,3,2,991,4
1.09028290056,0.836235606249,0.222849903921,0.222090016765,0.412000000001,0.45,0,0,2,992,4
0.370479939176,1.14410122721,0.248117726546,0.293110900475,0.349000000001,0.45,1,1,2,993,4
0.289938943875,0.126643597942,0.184687556348,1.12778016598,0.343000000001,0.45,3,3,2,994,4
0.454879118844,1.0567614951,0.206461393978,0.217218294108,0.263000000001,0.45,1,1,2,995,4
0.442771909472,0.221538403905,1.07430700968,0.411348950038,0.280000000001,0.45,2,2,2,996,4
0.447505121275,0.231064259181,0.251351091073,1.0434829037,0.351000000001,0.45,3,3,2,997,4
0.360506515561,0.148037833072,1.03724445605,0.27770965524,0.395000000001,0.45,2,2,2,998,4
1.18036270648,0.272979752171,0.278968909162,0.251629924056,0.350000000001,0.45,0,0,2,999,4
0.445652683466,0.252361924699,1.07340114486,0.251727949801,0.341000000001,0.45,2,2,2,1000,4
0.471621535232,0.382314876273,0.4246131326,1.03990102438,0.398000000001,0.45,3,3,2,1001,4
0.39608985317,1.11679684839,0.295475621414,0.234909537376,0.297000000001,0.45,1,1,2,1002,4
1.1103664245,0.282089573922,0.257016082942,0.307048280068,0.321000000001,0.45,0,0,2,1003,4
0.505064695491,1.09264558416,0.25763956159,0.27117566777,0.393000000001,0.45,1,1,2,1004,4
0.146704369733,0.200968432289,0.27020340868,1.10222712813,0.352000000001,0.45,3,3,2,1005,4
1.30966143762,0.32459254704,0.250580298335,0.349760690302,0.383000000001,0.45,0,0,2,1006,4
0.341475007373,0.248513740658,1.09475099012,0.53088442541,0.369000000001,0.45,2,2,2,1007,4
0.523749961986,1.11939226466,0.334631506114,0.469881148014,0.290000000001,0.45,1,1,2,1008,4
0.372562240231,0.362394561477,1.10182496876,0.419593902663,0.334000000001,0.45,2,2,2,1009,4
1.29367515243,0.327433941018,0.365263709326,0.46146875996,0.326000000001,0.45,0,0,2,1010,4
0.336711624557,0.300515263567,0.335966319727,1.01250573837,0.354000000001,0.45,3,3,2,1011,4
0.340198106982,0.248740392995,1.0752682855,0.281116294874,0.373000000001,0.45,2,2,2,1012,4
0.416736315162,0.238738571954,0.296215104788,1.05750699568,0.449000000001,0.45,3,3,2,1013,4
1.17086740959,0.306366245329,0.267326736402,0.315274465196,0.374000000001,0.45,0,0,2,1014,4
0.481210979015,1.16694322906,0.306438486911,0.330077841308,0.403000000001,0.45,1,1,2,1015,4
1.16893781362,0.269333404125,0.284631850159,0.378956626365,0.368000000001,0.45,0,0,2,1016,4
0.409559979806,0.256684377434,0.31860986977,1.00659130287,0.316000000001,0.45,3,3,2,1017,4
0.408863393863,1.11490901176,0.302578204884,0.356769870357,0.323000000001,0.45,1,1,2,1018,4
0.414249821637,0.329406803288,0.338655890967,1.04392207044,0.319000000001,0.45,3,3,2,1019,4
0.420042598166,0.360425981759,1.04030489441,0.325333152661,0.349000000001,0.45,2,2,2,1020,4
0.35421048461,1.03223758817,0.333267131676,0.323823758253,0.323000000001,0.45,1,1,2,1021,4
0.272746590652,0.271455383104,1.07885620193,0.415404673475,0.312000000001,0.45,2,2,2,1022,4
1.07944570535,0.286439153442,0.318211832431,0.289720386897,0.358000000001,0.45,0,0,2,1023,4
0.467291897261,0.383103385348,1.06460874137,0.457313582806,0.344000000001,0.45,2,2,2,1024,4
1.15712754727,0.335280754039,0.28493090672,0.366924842824,0.366000000001,0.45,0,0,2,1025,4
0.42917581793,0.30917707094,0.360392856145,1.07990377718,0.331000000001,0.45,3,3,2,1026,4
0.385962154135,1.200469318,0.291496355628,0.26286657966,0.295000000001,0.45,1,1,2,1027,4
1.32048173625,0.271618488554,0.318126412395,0.334789041784,0.363000000001,0.45,0,0,2,1028,4
0.400949148567,1.06346132589,0.304375123018,0.255636679192,0.385000000001,0.45,1,1,2,1029,4
0.383668101715,0.284928672346,0.341821294147,1.15681738084,0.344000000001,0.45,3,3,2,1030,4
0.484642502363,1.10979501904,0.266188085922,0.245741861605,0.309000000001,0.45,0,1,-1,1031,4
0.302853992855,0.17480024306,1.11151636174,0.3368077505,0.415000000001,0.45,2,2,2,1032,4
0.409497320838,1.1485346202,0.225536428184,0.262024176755,0.375000000001,0.45,1,1,2,1033,4
0.305040967754,0.219729166279,1.1323160783,0.295942416717,0.336000000001,0.45,2,2,2,1034,4
0.328734630094,0.203591885199,0.28048230654,1.06101038679,0.310000000001,0.45,3,3,2,1035,4
0.302860895627,0.196321267795,1.13850232393,0.236397549784,0.400000000001,0.45,2,2,2,1036,4
0.280835714945,0.224701203763,0.185864784128,1.11268503451,0.382000000001,0.45,3,3,2,1037,4
1.00965862433,0.335501344629,0.275442109249,0.177361695242,0.353000000001,0.45,0,0,2,1038,4
1.02014903737,0.300416604989,0.317893693772,0.227999416529,0.299000000001,0.45,1,0,-1,1039,4
1.1135625319,0.324575599371,0.300817886366,0.251586227018,0.392000000001,0.45,0,0,2,1040,4
0.277216586189,0.222680198203,0.66821795374,1.04945414168,0.357000000001,0.45,3,3,2,1041,4
0.413269982964,1.03588566993,0.228622023084,0.287132535267,0.300000000001,0.45,1,1,2,1042,4
0.196271840102,0.214367600754,1.00542134855,0.275340596753,0.331000000001,0.45,3,2,-1,1043,4
0.381871549582,0.248672751456,1.29008088239,0.355238792879,0.378000000001,0.45,2,2,2,1044,4
0.368689216066,1.11467476173,0.191776131453,0.254035842778,0.321000000001,0.45,1,1,2,1045,4
0.347420813642,0.212150873127,1.1441826511,0.338086571776,0.359000000001,0.45,2,2,2,1046,4
1.28512278498,0.341931049239,0.250275356876,0.366763034886,0.372000000001,0.45,0,0,2,1047,4
0.3996623212,0.279135584399,1.20593342386,0.340461685324,0.343000000001,0.45,2,2,2,1048,4
0.45229817402,1.10021676241,0.256652276031,0.313379844941,0.373000000001,0.45,1,1,2,1049,4
1.40670826293,0.249312758759,0.27885614418,0.32493856255,0.353000000001,0.45,0,0,2,1050,4
0.31710303453,0.215445487817,0.268777009361,1.05150093941,0.338000000001,0.45,3,3,2,1051,4
1.15772924139,0.284836106697,0.251754787812,0.265750381136,0.355000000001,0.45,0,0,2,1052,4
0.278537099739,1.16070434955,0.292200635531,0.365617416147,0.391000000001,0.45,1,1,2,1053,4
0.264503797478,0.208881716298,0.268445145463,1.11779347535,0.312000000001,0.45,3,3,2,1054,4
0.344713217481,0.21633654905,1.08445909546,0.231675684291,0.330000000001,0.45,2,2,2,1055,4
0.270699676477,0.167516206144,0.232690466102,1.1702328858,0.352000000001,0.45,3,3,2,1056,4
0.367114465338,1.08907676544,0.217723921448,0.144933102579,0.301000000001,0.45,1,1,2,1057,4
0.328881628519,0.12729929497,1.08768495328,0.301254229351,0.388000000001,0.45,2,2,2,1058,4
1.44253412563,0.192971189112,0.243496673951,0.284422041708,0.347000000001,0.45,0,0,2,1059,4
0.222979203736,0.121909504234,1.13216739731,0.247305042491,0.331000000001,0.45,2,2,2,1060,4
0.248791523482,0.178085101343,0.209248754273,1.01439751021,0.646000000001,0.45,3,3,1,1061,4
0.454641835424,1.0478796048,0.0497280522418,0.123952179333,0.487000000001,0.45,1,1,1,1062,4
1.01113259025,0.220443428372,0.196798910987,0.168653800308,0.362000000001,0.45,0,0,2,1063,4
0.389969549679,1.18521186827,0.250738212031,0.256649810756,0.350000000001,0.45,1,1,2,1064,4
0.268900349529,0.202765554646,1.06625123124,0.362801120035,0.309000000001,0.45,3,2,-1,1065,4
1.33036011867,0.368558918364,0.276300757673,0.219384587717,0.348000000001,0.45,0,0,2,1066,4
0.288619899697,0.25849771272,1.2438392487,0.286490241265,0.308000000001,0.45,2,2,2,1067,4
0.433326432169,1.09531428615,0.231161525599,0.252470403152,0.325000000001,0.45,0,1,-1,1068,4
0.242609067734,0.175232175765,0.245083045404,1.16614646185,0.294000000001,0.45,3,3,2,1069,4
0.356125375108,0.23871287337,1.20631369914,0.320595376674,0.422000000001,0.45,2,2,2,1070,4
0.330687993477,1.10257381744,0.271728952064,0.220665984487,0.418000000001,0.45,1,1,2,1071,4
0.384110911038,0.189328245734,1.10374715833,0.327533409713,0.397000000001,0.45,2,2,2,1072,4
0.3062804332,0.281905943628,0.215662615412,1.06510760842,0.387000000001,0.45,3,3,2,1073,4
0.392279283191,1.12914352512,0.193221799414,0.0916583510929,0.325000000001,0.45,1,1,2,1074,4
1.22539148672,0.290370675674,0.191668814806,0.184956278149,0.319000000001,0.45,0,0,2,1075,4
0.304529060288,0.227361748741,0.199830376618,1.11097665932,0.362000000001,0.45,3,3,2,1076,4
1.39571474701,0.293943237595,0.189127815309,0.275540415551,0.357000000001,0.45,0,0,2,1077,4
0.462771509797,1.09297672729,0.157452033438,0.233172363513,0.363000000001,0.45,1,1,2,1078,4
0.364293304892,0.254165666786,1.07364815268,0.240365905962,0.332000000001,0.45,2,2,2,1079,4
1.35249931239,0.309207390043,0.259919336158,0.209055509444,0.328000000001,0.45,0,0,2,1080,4
0.463612288731,0.290743959044,1.1597883045,0.299156506335,0.359000000001,0.45,2,2,2,1081,4
0.328905515454,1.15901337469,0.264047370174,0.300887393696,0.348000000001,0.45,1,1,2,1082,4
0.239381526352,0.204263606538,0.261868825878,1.23345888423,0.343000000001,0.45,3,3,2,1083,4
0.273003367546,0.188572651358,1.07323552259,0.150947547969,0.348000000001,0.45,2,2,2,1084,4
0.154048322712,0.161548055206,0.192331602873,1.12080564033,0.502000000001,0.45,3,3,1,1085,5
0.285075796346,0.221666402568,1.1504850218,0.184103256226,0.419000000001,0.45,2,2,2,1086,5
0.225146290561,1.1371088477,0.20327977303,0.204963470309,0.310000000001,0.45,1,1,2,1087,5
1.37542537338,0.260993438025,0.275348051591,0.280442767669,0.302000000001,0.45,0,0,2,1088,5
0.323813041232,0.241566022285,1.13889753036,0.362758459229,0.287000000001,0.45,2,2,2,1089,5
1.54679004861,0.266484632247,0.234758311271,0.300668198859,0.339000000001,0.45,0,0,2,1090,5
1.02654959437,0.307663421962,0.312059751772,0.424803403155,0.348000000001,0.45,1,0,-1,1091,5
0.246121943071,0.253331989741,1.05067207725,0.426249052146,0.356000000001,0.45,2,2,2,1092,5
0.285078813796,0.214196223752,0.381013264878,1.00943029622,0.346000000001,0.45,3,3,2,1093,5
1.11057412161,0.446543350825,0.260901975967,0.337446045155,0.384000000001,0.45,0,0,2,1094,5
0.279093144022,0.133539438283,0.425164863077,1.09098114936,0.360000000001,0.45,3,3,2,1095,5
0.308804570614,1.00882221683,0.175832637137,0.34236580431,0.276000000001,0.45,1,1,2,1096,5
0.513962448697,0.326869477259,0.315762017798,1.06565859305,0.366000000001,0.45,3,3,2,1097,5
1.01796945145,0.344833430798,0.255207014953,0.273284845108,0.329000000001,0.45,0,0,2,1098,5
0.45878047446,1.05719054142,0.312307562045,0.254165059255,0.389000000001,0.45,1,1,2,1099,5
0.35108285865,0.31992274347,1.06078460297,0.326347063991,0.343000000001,0.45,2,2,2,1100,5
0.435384037421,0.302499416499,0.26754992557,1.00913526075,0.293000000001,0.45,0,3,-1,1101,5
0.351059401132,0.280752922387,0.280229339297,1.00767385247,0.335000000001,0.45,2,3,-1,1102,5
0.425283271615,1.13101462767,0.335439425329,0.320108250975,0.401000000001,0.45,1,1,2,1103,5
0.322191229271,0.266668940503,0.283063287701,1.109401642,0.357000000001,0.45,3,3,2,1104,5
0.316167304427,1.12848442532,0.263399544734,0.262454238657,0.341000000001,0.45,1,1,2,1105,5
1.14762692447,0.3235293331,0.316692678032,0.414205796537,0.323000000001,0.45,0,0,2,1106,5
0.456154456525,0.338737518599,0.328446534907,1.01350418526,0.385000000001,0.45,3,3,2,1107,5
0.317571675165,0.240018541408,1.00527277378,0.306981856941,0.407000000001,0.45,2,2,2,1108,5
0.471212857668,0.334278179435,0.276793081296,1.09488129335,0.461000000001,0.45,3,3,1,1109,5
1.25115973493,0.299630665571,0.277857766079,0.240863059365,0.434000000001,0.45,0,0,2,1110,5
0.372012819926,1.13544586786,0.316605862277,0.222948615128,0.399000000001,0.45,1,1,2,1111,5
0.412157871461,0.236054525999,1.11333737646,0.269337315371,0.364000000001,0.45,2,2,2,1112,5
0.391734577443,1.07962766527,0.167447343477,0.196485142612,0.353000000001,0.45,1,1,2,1113,5
1.02332648375,0.287972306385,0.247461695607,0.368532822257,0.325000000001,0.45,0,0,2,1114,5
0.399838973405,0.272345902055,1.13359222905,0.376666565453,0.353000000001,0.45,2,2,2,1115,5
1.22921789864,0.312500314288,0.273600234097,0.279814944943,0.362000000001,0.45,0,0,2,1116,5
0.253583198718,0.1788623969,0.249807965542,1.12781558223,0.371000000001,0.45,3,3,2,1117,5
0.428224294786,1.21510116236,0.248788370701,0.153703149335,0.309000000001,0.45,1,1,2,1118,5
0.392159902947,0.235031337658,0.211818964295,0.403716115869,0.7,0.45,3,-1,0,1120,5
0.321762454476,0.192461520765,0.201031867505,1.10968674474,0.0540000000006,0.45,2,3,-1,1120,5
0.40162328173,0.248280290074,0.166423778054,1.24973028196,0.458000000001,0.45,3,3,1,1121,5
0.36500303006,1.0628090264,0.665757866773,0.0642258856989,0.534000000001,0.45,1,1,1,1122,5
1.01517896163,0.316368821138,0.103083817208,0.116124369057,0.364000000001,0.45,0,0,2,1123,5
0.529927007056,0.346346470105,1.19917758503,0.176846389802,0.319000000001,0.45,2,2,2,1124,5
1.3046890182,0.316787975087,0.243939571616,0.127484842464,0.360000000001,0.45,0,0,2,1125,5
0.579616685817,1.02555428074,0.265122485955,0.213498727445,0.371000000001,0.45,1,1,2,1126,5
0.386730956736,1.15504254102,0.306842972215,0.245650162884,0.363000000001,0.45,2,1,-1,1127,5
0.338471077946,0.261214204125,0.237016124498,1.04593276264,0.391000000001,0.45,3,3,2,1128,5
1.00601713911,0.283333809933,0.263477777272,0.212499607877,0.364000000001,0.45,0,0,2,1129,5
0.415161930386,0.274483777836,0.236664363609,1.05698238766,0.354000000001,0.45,3,3,2,1130,5
0.286929939568,0.237709561854,1.16540361595,0.293895738153,0.367000000001,0.45,2,2,2,1131,5
0.337642556003,1.10335635779,0.250712560491,0.246342683519,0.448000000001,0.45,1,1,2,1132,5
0.393454447803,0.246929207653,0.243068559795,1.05929146006,0.385000000001,0.45,3,3,2,1133,5
0.40715040782,1.16877628701,0.198534102354,0.142549183502,0.346000000001,0.45,1,1,2,1134,5
1.15929628528,0.243026376396,0.222652557421,0.172934464615,0.370000000001,0.45,0,0,2,1135,5
0.286171809805,0.244534705953,1.14216746265,0.217746056084,0.451000000001,0.45,2,2,1,1136,5
0.35616202459,1.01764353077,0.197696538465,0.140112305085,0.385000000001,0.45,1,1,2,1137,5
0.312424031234,0.22781605996,1.02558826169,0.212318259055,0.327000000001,0.45,2,2,2,1138,5
1.09072882464,0.342849186973,0.240249833797,0.271719299752,0.346000000001,0.45,0,0,2,1139,5
0.415651032733,1.15546041209,0.26901281137,0.247040432284,0.381000000001,0.45,1,1,2,1140,5
0.303528782941,0.228073416083,0.228582873499,1.12184354121,0.368000000001,0.45,3,3,2,1141,5
0.255911173526,0.230978778759,1.21604557494,0.245222096842,0.358000000001,0.45,2,2,2,1142,5
0.212126845842,0.238376511431,0.255208954263,1.06655273896,0.387000000001,0.45,3,3,2,1143,5
1.24503337752,0.345023806069,0.271482176506,0.196739374306,0.368000000001,0.45,0,0,2,1144,5
0.407393935955,0.265283210679,0.29244378545,1.01444316047,0.344000000001,0.45,3,3,2,1145,5
0.313820783801,1.1394813159,0.224498247587,0.160584694859,0.349000000001,0.45,1,1,2,1146,5
1.10274526871,0.250153125959,0.245512681153,0.172557107337,0.328000000001,0.45,0,0,2,1147,5
0.463842591838,0.253421969795,1.25108862829,0.177787627806,0.334000000001,0.45,2,2,2,1148,5
0.510665808294,1.13437215748,0.22404696928,0.17909827388,0.356000000001,0.45,1,1,2,1149,5
0.358093048028,0.180459545689,1.11244859117,0.149189142365,0.324000000001,0.45,2,2,2,1150,5
1.23810565813,0.210981921796,0.235549449093,0.260187335872,0.324000000001,0.45,0,0,2,1151,5
0.623668540993,1.08472019428,0.314065430762,0.320640099827,0.324000000001,0.45,1,1,2,1152,5
0.276510716528,0.225963230172,0.284407888371,1.0456026521,0.354000000001,0.45,3,3,2,1153,5
1.03189688496,0.351033719607,0.247651766592,0.220534014428,0.382000000001,0.45,0,0,2,1154,5
0.53710964136,0.33848549171,0.258413982097,0.653500272485,0.7,0.45,3,-1,0,1156,5
0.403473737286,0.261442187123,0.228113106071,1.07282455121,0.0170000000006,0.45,2,3,-1,1156,5
0.229785403201,0.169052940654,0.168284565041,1.02978625208,0.422000000001,0.45,3,3,2,1157,5
0.374804629107,1.05936087781,0.646534145763,0.0801376258731,0.465000000001,0.45,1,1,1,1158,5
1.03730750426,0.195648246318,0.0963078095334,0.0466434474844,0.356000000001,0.45,0,0,2,1159,5
0.393073804834,0.112314044802,1.1735589197,0.171693467873,0.367000000001,0.45,2,2,2,1160,5
1.02340945079,0.940820151614,0.314261050407,0.191360950805,0.366000000001,0.45,0,0,2,1161,5
0.664951120227,1.06997985416,0.224597035976,0.268374697467,0.324000000001,0.45,1,1,2,1162,5
0.513607624035,0.423786226854,1.12463196449,0.389927438182,0.438000000001,0.45,2,2,2,1163,5
0.48280878303,1.01989752533,0.193933680017,0.234765890619,0.438000000001,0.45,1,1,2,1164,5
0.389268013356,0.142398291283,0.185327483524,1.12426495846,0.355000000001,0.45,3,3,2,1165,5
0.362911910092,0.128442832491,1.10364396944,0.253637087586,0.356000000001,0.45,2,2,2,1166,5
0.358577647634,0.216241593157,0.127241670494,1.09106753688,0.358000000001,0.45,3,3,2,1167,5
1.07042128783,0.284201088474,0.206500967508,0.165912348441,0.336000000001,0.45,0,0,2,1168,5
0.367841352966,0.224165441306,0.174778256367,1.00397443737,0.331000000001,0.45,3,3,2,1169,5
1.09015749787,0.358086364559,0.199379822714,0.240732728399,0.365000000001,0.45,0,0,2,1170,5
0.390205049677,1.16785367376,0.204885587959,0.291397793699,0.359000000001,0.45,1,1,2,1171,5
0.37408007302,1.09932535153,0.223769090942,0.342792615744,0.347000000001,0.45,2,1,-1,1172,5
0.415047065448,1.03091833749,0.256364499388,0.288132697443,0.383000000001,0.45,1,1,2,1173,5
1.31372289789,0.276940910881,0.294841371193,0.415499591025,0.357000000001,0.45,0,0,2,1174,5
0.589788100591,0.329584426746,1.09643532279,0.401108315148,0.373000000001,0.45,2,2,2,1175,5
1.04416800796,0.317900565366,0.288252555218,0.331639381792,0.349000000001,0.45,0,0,2,1176,5
0.600940731653,0.289033862531,0.314082602968,1.12011843638,0.292000000001,0.45,3,3,2,1177,5
0.42126310051,1.33874288962,0.234615628161,0.276774160084,0.286000000001,0.45,1,1,2,1178,5
0.4505263977,0.214151803645,0.335935813375,1.08683322545,0.357000000001,0.45,3,3,2,1179,5
0.415826260987,0.261922609657,1.16086057407,0.337598046903,0.355000000001,0.45,2,2,2,1180,5
0.386490276329,0.229498319099,0.193931908946,1.02001178916,0.390000000001,0.45,3,3,2,1181,5
0.542194707867,1.04979111517,0.21448475559,0.187844441459,0.390000000001,0.45,1,1,2,1182,5
0.285864485504,0.20880753755,1.06849202707,0.273161254167,0.368000000001,0.45,2,2,2,1183,5
1.04827481215,0.305361593808,0.234631130109,0.328734237826,0.321000000001,0.45,0,0,2,1184,5
0.365677427039,1.02925084974,0.287559264433,0.385840887374,0.415000000001,0.45,1,1,2,1185,5
1.14468670016,0.284450931363,0.283016221076,0.337870090604,0.397000000001,0.45,0,0,2,1186,5
0.386945444258,0.248299517916,1.12246947506,0.365041436211,0.355000000001,0.45,2,2,2,1187,5
