force_0,force_1,force_2,force_3,rt,rt_threshold,target_finger,selected_finger,score,trial,run
0.300357046921,0.525454786775,0.359581639805,0.151330228844,0.7,0.45,0,-1,0,1,0
1.08083533868,0.802872882818,0.353271329464,0.00659072706865,0.229,0.45,3,0,-1,1,0
0.241463838342,0.538074470584,1.07641000384,0.360169519687,0.419,0.45,1,2,-1,2,0
0.148313089473,0.176986462076,1.07180715256,0.187495732177,0.31,0.45,2,2,2,3,0
0.344549749075,1.08910020863,0.264831712513,0.108012475341,0.407,0.45,1,1,2,4,0
0.153981120323,0.18914622247,0.358018608198,1.05445725131,0.441,0.45,3,3,2,5,0
0.0576048590594,0.229905754358,1.06597100213,0.302942839598,0.439,0.45,2,2,2,6,0
1.1223497735,0.395486599184,0.178853837685,0.1439048431,0.392,0.45,0,0,2,7,0
0.129254020903,1.03112898623,0.181669863291,-0.0301964626274,0.298,0.45,1,1,2,8,0
1.07491609903,0.462711532131,0.267001005389,0.273094347812,0.424,0.45,0,0,2,9,0
0.140999550577,0.357230390188,1.10188621324,0.235210050206,0.407,0.45,2,2,2,10,0
0.160561638402,0.114191588891,0.677043104301,0.954544691788,0.7,0.45,3,-1,0,12,0
0.212392605871,0.0621228191459,0.552504593587,1.01483691484,0.06,0.45,0,3,-1,12,0
-0.0092756773609,-0.00380251802179,0.772840746788,1.03839356846,0.452,0.45,3,3,1,13,0
0.0434669255269,1.04483811851,0.138598773579,0.190621467021,0.467,0.45,2,1,-1,14,0
0.224684753698,1.0064517651,0.160787064912,0.050210765077,0.361,0.45,1,1,2,15,0
0.0684691728573,0.114448212029,1.06303663493,0.0639371421756,0.364,0.45,2,2,2,16,0
0.0147464199853,0.0962870310654,0.298668743171,1.10671146881,0.34,0.45,3,3,2,17,0
1.03135513195,0.377037653586,0.210969980039,0.0903988753109,0.368,0.45,1,0,-1,18,0
0.0935950186561,0.162904437378,0.208858585274,1.03213771602,0.42,0.45,3,3,2,19,0
1.11859834004,0.307088747858,0.187511043201,0.045920750735,0.426,0.45,0,0,2,20,0
0.146049775551,1.05291837832,0.205532284666,0.0824277049256,0.318,0.45,1,1,2,21,0
1.11778498757,0.361381225604,0.241927463761,0.136176532194,0.4,0.45,0,0,2,22,0
0.079256613685,0.297421501075,1.00387315276,0.230660883494,0.396,0.45,2,2,2,23,0
1.09111045654,0.270232978687,0.198247658538,0.116409417975,0.433,0.45,0,0,2,24,0
0.194751377422,1.07678176941,0.198441893744,0.0924717703342,0.457,0.45,1,1,1,25,0
0.12703568773,0.125737455643,0.373431899371,1.00860198501,0.531,0.45,3,3,1,26,0
0.0765633132614,0.27535428121,1.03738011655,0.363992978199,0.547,0.45,2,2,1,27,0
0.0360536787962,0.113369810004,0.45571383092,1.0802978245,0.532,0.45,3,3,1,28,0
0.343719806042,1.07231907275,0.237406341713,0.083812223537,0.452,0.45,1,1,1,29,0
0.0657230424249,0.290408657255,1.00632042407,0.149257434646,0.421,0.45,2,2,2,30,0
0.272939022305,1.10530276074,0.286655965407,0.0698881410801,0.389,0.45,1,1,2,31,0
1.06131857676,0.416144456233,0.198930754094,0.0719212897087,0.295,0.45,0,0,2,32,0
0.132554587856,1.01796003446,0.479233148259,0.0756364698185,0.361,0.45,2,1,-1,33,0
1.04398152883,0.209833117078,0.255671712133,0.168566941422,0.412,0.45,0,0,2,34,0
0.156269683342,0.153348403866,0.145687845435,1.05114314459,0.4,0.45,3,3,2,35,0
1.10835602666,0.23192750207,0.107523678957,0.0468842497238,0.35,0.45,0,0,2,36,0
0.321744908412,1.02203475972,0.188837009094,0.0633181873669,0.428,0.45,1,1,2,37,0
0.0707944759375,0.038263409779,0.338293452816,1.02177555733,0.478,0.45,3,3,1,38,0
0.082936820857,0.193293657164,1.00831415555,0.196016778516,0.471,0.45,2,2,1,39,0
0.358611600509,1.08513768211,0.259915239603,0.056857653198,0.379,0.45,1,1,2,40,0
0.333171789167,0.380501968755,1.09997161582,0.00264634666542,0.478,0.45,2,2,1,41,0
0.0617976255815,0.018816606294,0.45081315295,1.02237617353,0.503,0.45,3,3,1,42,0
0.213413674215,1.04685923843,0.167410120226,0.00413673803258,0.439,0.45,1,1,2,43,0
1.04881283211,0.308868756192,0.145065780197,0.00177374540646,0.418,0.45,0,0,2,44,0
0.0795630344696,0.0646202716334,0.156892088586,1.01598713251,0.394,0.45,3,3,2,45,0
1.05817361269,0.290904848865,0.172205514323,0.0314431341912,0.398,0.45,0,0,2,46,0
0.104776115209,0.135922324111,1.15710675395,0.330353820862,0.384,0.45,2,2,2,47,0
1.14724150902,0.273779143214,0.177584744133,0.0113396514208,0.401,0.45,0,0,2,48,0
0.0468970570651,1.08727189453,0.167936073529,0.0795916705141,0.411,0.45,1,1,2,49,0
0.183525155517,0.417069312733,1.06424656433,0.0696462309191,0.368,0.45,2,2,2,50,0
0.0635840040548,0.21501738804,0.281728448607,1.09668631072,0.302,0.45,3,3,2,51,0
0.112753708802,0.305966798092,1.15172315843,0.0152578511483,0.353,0.45,2,2,2,52,0
0.208035437138,1.07443117385,0.713236753581,0.213673799099,0.342,0.45,1,1,2,53,0
0.178891175976,0.196326123511,0.215474606261,1.09570041219,0.455,0.45,3,3,1,54,0
0.250133336711,1.00385782024,0.231270572417,-0.0108959019837,0.454,0.45,1,1,1,55,0
1.06391088283,0.33065921324,0.159314396848,0.092277194603,0.343,0.45,0,0,2,56,0
0.0334341866564,0.252957296015,0.820681636112,1.06597971142,0.382,0.45,3,3,2,57,0
1.18202326697,0.594583520525,0.176808719768,0.00849651466649,0.433,0.45,0,0,2,58,0
0.184986783275,0.246563792454,1.04131899916,0.12639894501,0.367,0.45,2,2,2,59,0
1.06335510407,0.24409895894,0.118137226785,0.0380702301494,0.384,0.45,0,0,2,60,0
0.254587394315,1.12299796703,0.197014897767,0.0923703884024,0.414,0.45,1,1,2,61,0
0.163381264569,0.235456355513,1.03132137659,0.200342372838,0.378,0.45,2,2,2,62,0
0.0768626351105,0.228194403892,0.233168639995,1.08348288612,0.34,0.45,3,3,2,63,0
0.143921351677,0.295913851253,1.00117506137,0.241066167079,0.375,0.45,2,2,2,64,0
0.273684389614,1.14141858661,0.22293551099,0.00705465436075,0.342,0.45,1,1,2,65,0
0.11543497285,0.161786307508,0.212839600667,1.13538139694,0.411,0.45,3,3,2,66,0
1.06673894552,0.326991055869,0.113250323923,0.00571153174888,0.413,0.45,0,0,2,67,0
0.129660760209,0.209013700063,1.03403176334,0.123295000359,0.323,0.45,2,2,2,68,0
1.02398364161,0.286323181242,0.176084185511,0.0458739400528,0.353,0.45,0,0,2,69,0
0.102424029552,0.112988346256,0.235282902099,1.07605826779,0.382,0.45,3,3,2,70,0
0.278724608495,1.09926830986,0.137169715087,-0.0140627712703,0.41,0.45,1,1,2,71,0
1.20788801489,0.378562002048,0.187560847829,0.0473287959592,0.386,0.45,0,0,2,72,0
0.321070104097,1.06715768086,0.163805938312,-0.028114329819,0.41,0.45,1,1,2,73,0
0.156562555659,1.17692935046,0.567009980198,0.0807079231727,0.408,0.45,2,1,-1,74,0
0.242606356011,0.183792149628,0.513022846366,1.00736908252,0.427,0.45,3,3,2,75,0
0.188775800927,1.13134529474,0.184422449569,0.0727714074337,0.336,0.45,1,1,2,76,0
0.0992504263874,0.0862499443642,0.223115804056,1.15749475413,0.389,0.45,3,3,2,77,0
0.156843885535,0.244305074493,1.0856780565,0.314872694437,0.395,0.45,2,2,2,78,0
1.02782702007,0.441134445933,0.186647909242,0.0842606637544,0.388,0.45,0,0,2,79,0
0.30362504114,0.194107965197,0.227669831423,1.17726095168,0.4,0.45,3,3,2,80,0
1.19221026357,0.189477826101,0.121428827608,0.165828279818,0.389,0.45,0,0,2,81,0
0.0557966419384,0.101742412957,1.03915782961,0.170168928282,0.328,0.45,2,2,2,82,0
0.683717287558,1.27692479501,0.179843869151,0.263922246078,0.421,0.45,1,1,2,83,0
1.15778439765,0.17446232691,0.145589977855,0.163035674239,0.382,0.45,0,0,2,84,0
0.136926314474,0.935401738791,1.09757962309,0.300183478687,0.447,0.45,2,2,2,85,0
0.31662977496,1.15884528882,0.176900570687,0.0372316620495,0.407,0.45,1,1,2,86,0
0.288572720231,0.119760956456,0.21615740814,1.06428907721,0.358,0.45,3,3,2,87,0
0.110743220079,0.622504247276,1.05731140959,0.563413696007,0.496,0.45,2,2,1,88,0
0.044799960395,0.0464493972756,0.244293550902,1.12173806064,0.566,0.45,3,3,1,89,0
0.294947079675,1.10788535465,0.168476854947,0.507743653674,0.451,0.45,1,1,1,90,0
0.0499351430194,0.312414934446,1.00160670894,0.784847848795,0.411,0.45,2,2,2,91,0
0.00383831816048,1.0944015578,0.424181399388,0.161199609686,0.383,0.45,0,1,-1,92,0
0.0814802884663,1.08589614307,0.186360608555,0.177689044906,0.399,0.45,1,1,2,93,0
1.11284882502,0.523753599304,0.181056226822,0.0211539338838,0.42,0.45,0,0,2,94,0
0.0896700328838,0.11228568593,0.38075138186,1.223924934,0.385,0.45,3,3,2,95,0
1.20574638417,0.226510059009,0.123466518696,0.134769271213,0.307,0.45,0,0,2,96,0
0.0593226188885,0.215640044862,1.02322200841,0.557255465847,0.367,0.45,2,2,2,97,0
0.0778619677065,0.111124623257,0.782723394406,1.13139491039,0.375,0.45,3,3,2,98,0
0.274199922871,1.07018081462,0.367513697122,0.185593920458,0.342,0.45,1,1,2,99,0
0.0872580133708,0.0915800356969,0.192843900466,1.05428395044,0.335,0.45,3,3,2,100,0
0.100326043245,0.0851719739614,1.12929198082,0.234398956343,0.352,0.45,2,2,2,101,0
0.192554723669,1.04887888375,0.215769981509,-0.0207035406549,0.358,0.45,1,1,2,102,0
0.170866320476,0.230869320304,0.801210925866,1.01054957324,0.396,0.45,2,3,-1,103,0
1.16690795145,0.334228155363,0.286402013017,-0.00214239961795,0.389,0.45,0,0,2,104,0
0.155609773956,1.28374657619,0.389928728483,-0.00343646220594,0.319,0.45,1,1,2,105,0
0.255715612919,1.12656254736,0.210191427501,-0.00552796943376,0.433,0.45,0,1,-1,106,0
0.0902346443803,0.0617264131705,0.199404971808,1.06828449802,0.421,0.45,3,3,2,107,0
1.06067218456,0.244464491098,0.100942396512,-0.0255307165939,0.397,0.45,0,0,2,108,0
0.257171678344,1.01316017096,0.166737787304,0.0327835582885,0.374,0.45,1,1,2,109,0
0.0452395284302,0.123704838849,0.333423574768,1.12923112947,0.426,0.45,3,3,2,110,0
0.0863121567734,0.149037052325,1.02933722002,0.135721130584,0.402,0.45,2,2,2,111,0
0.127175574338,1.03876012378,0.191922953376,-0.00499147028578,0.377,0.45,1,1,2,112,0
0.270767258311,0.207441651682,1.00524591722,0.265259858949,0.415,0.45,2,2,2,113,0
0.0717692470299,0.106402044468,0.245085279714,1.05435160048,0.399,0.45,3,3,2,114,0
1.04008738637,0.195512703353,0.13095014212,0.0990101586428,0.356,0.45,0,0,2,115,0
0.107775486068,0.111686048215,0.306065716223,1.06851370792,0.382,0.45,3,3,2,116,0
0.169922622068,1.06742334018,0.211544744432,0.0958012747721,0.364,0.45,1,1,2,117,0
1.13072891536,0.113876128002,0.16640440475,0.310611400114,0.393,0.45,0,0,2,118,0
0.184418895994,0.288057086841,1.02966718002,0.336945380367,0.443,0.45,2,2,2,119,0
1.07338481207,0.883746763613,0.209570292364,0.145754834475,0.454,0.45,0,0,1,120,0
0.197470371417,0.280976300035,1.00723492654,0.112260597241,0.407,0.45,2,2,2,121,0
0.138080637687,0.0691718019488,0.161425214339,1.11281341806,0.4,0.45,3,3,2,122,0
0.279061354417,1.12497521856,0.145696530753,0.0728963391904,0.446,0.45,1,1,2,123,0
0.071402570814,0.0271191736629,0.178101048961,1.01651756078,0.4,0.45,3,3,2,124,0
0.245113280229,0.108268530681,1.03359852719,0.503330926116,0.44,0.45,2,2,2,125,0
0.277993684304,1.04491056979,0.163913276753,0.0733830803673,0.38,0.45,1,1,2,126,0
1.09521728662,0.203784334028,0.147407615539,0.118238670581,0.313,0.45,0,0,2,127,0
0.176795162391,1.19113247548,0.155242826362,-0.00271497724589,0.389,0.45,1,1,2,128,0
0.216517041701,0.408765118157,1.05793768168,0.249132107737,0.346,0.45,2,2,2,129,0
1.02341057484,0.141734755275,0.215879339666,0.350768366889,0.398,0.45,0,0,2,130,0
0.106508467743,0.130247151432,0.405848881843,1.15554411154,0.398,0.45,3,3,2,131,0
1.10897880831,0.273088908364,0.168746313196,0.130449982282,0.401,0.45,0,0,2,132,0
0.438647390129,1.14823969273,0.75257327687,0.102924804399,0.37,0.45,1,1,2,133,0
0.199011720599,0.191841115072,0.242506744414,1.12076384193,0.337,0.45,3,3,2,134,0
0.105888064587,0.278191161763,1.122909674,0.653951222227,0.392,0.45,2,2,2,135,0
0.0875642002596,0.0828960950634,0.700508323477,1.11486233387,0.417,0.45,3,3,2,136,0
0.42437023711,1.09760386317,0.227967684329,0.687929004665,0.364,0.45,1,1,2,137,0
0.276377146609,0.604139053925,1.07792768574,0.623549395734,0.457,0.45,2,2,1,138,0
1.08733762559,0.181054260159,0.265058295071,0.29731174581,0.405,0.45,1,0,-1,139,0
1.08103600073,0.186779909708,0.137828771242,0.258508117405,0.419,0.45,0,0,2,140,0
0.210162279328,0.672864499988,1.03106105507,0.452884629318,0.468,0.45,2,2,1,141,0
1.15677186487,0.179676302175,0.225060994004,0.111488749057,0.421,0.45,0,0,2,142,0
0.123240880869,0.105635167081,0.801926262388,1.08896588617,0.393,0.45,3,3,2,143,0
1.04604842516,0.519270654506,0.126095123549,0.117865712982,0.395,0.45,0,0,2,144,0
0.190434312838,0.177688460487,1.05169955916,0.28302433311,0.424,0.45,2,2,2,145,0
0.210944926941,1.12471386806,0.186317989266,0.0113096944724,0.395,0.45,1,1,2,146,0
0.333210373421,0.100261474666,0.164507559677,1.04409700827,0.433,0.45,3,3,2,147,0
0.173011919571,0.228837971559,1.11094307453,0.27211148137,0.404,0.45,2,2,2,148,0
0.00601117533896,0.0820831235586,0.319254553909,1.09546557307,0.401,0.45,3,3,2,149,0
0.317538616222,1.18737952596,0.152906833079,0.159430428766,0.389,0.45,1,1,2,150,0
1.0742108421,0.30943282813,0.0994152981388,0.0547881488497,0.348,0.45,0,0,2,151,0
0.217192000356,1.08262141686,0.214062751622,0.0182519041198,0.412,0.45,1,1,2,152,0
0.269185836772,0.364897992646,1.05164679312,0.236963121327,0.35,0.45,2,2,2,153,0
1.08600914495,0.959126853432,0.148280569209,-0.00217481359809,0.428,0.45,0,0,2,154,0
0.102057781994,0.0590431289467,0.216902541109,1.01207212058,0.37,0.45,3,3,2,155,0
1.02423764734,0.149013501451,0.120841117321,0.158002130974,0.318,0.45,0,0,2,156,0
0.227338675802,1.0335384759,0.161317438319,0.070804172167,0.324,0.45,1,1,2,157,0
0.00474477198134,0.0778598805032,1.03025384655,1.06890884018,0.367,0.45,3,3,2,158,0
0.250676134635,0.00959462192479,1.0574890897,0.307862573221,0.448,0.45,2,2,2,159,0
0.349831990307,1.07159277752,0.16255382236,0.123236591484,0.408,0.45,1,1,2,160,0
0.603426261379,0.0233630597522,1.02553240451,0.363237224097,0.46,0.45,2,2,1,161,0
0.136620230124,0.0145123187431,0.228954529696,1.05642610134,0.45,0.45,3,3,1,162,0
0.281800258744,1.01891823666,0.163438192325,0.123968603563,0.455,0.45,1,1,1,163,0
1.02885718456,0.207701879453,0.157719546138,0.115603006334,0.355,0.45,0,0,2,164,0
0.157570041859,0.112004698085,0.436353933681,1.00282847059,0.367,0.45,3,3,2,165,0
1.02738807744,0.175917734467,0.170892677101,0.135208479823,0.389,0.45,0,0,2,166,0
0.163486976618,0.152829427204,1.01753423261,0.246578574978,0.381,0.45,2,2,2,167,0
1.14476089063,0.2000474676,0.201288057251,0.26434525846,0.353,0.45,0,0,2,168,0
0.168846009082,0.0362124238086,0.122033312303,1.11174443133,0.3,0.45,3,3,2,169,0
0.409542593131,1.11081836351,0.196622075068,0.191668372767,0.423,0.45,1,1,2,170,0
0.29740631919,0.288492844317,1.0764665294,0.306606098083,0.38,0.45,2,2,2,171,0
0.20153038194,0.0933548042348,0.245514180575,1.0712048276,0.398,0.45,3,3,2,172,0
0.303445230671,0.86794004171,1.09157953164,0.384413204445,0.452,0.45,2,2,1,173,0
0.43793033346,1.03339840805,0.19943407046,0.0726491840448,0.416,0.45,1,1,2,174,0
0.360212119891,0.151550693826,0.21884912071,1.00215864497,0.415,0.45,3,3,2,175,0
1.11279973309,0.287230185864,0.163709472592,0.131328034054,0.397,0.45,0,0,2,176,0
0.325512856184,0.36294795643,1.00106325744,0.115732542359,0.333,0.45,2,2,2,177,0
1.00763864079,0.188016934001,0.210525462078,0.278506545463,0.366,0.45,0,0,2,178,0
0.208233741593,1.07023300714,0.22022013787,0.478358047477,0.422,0.45,1,1,2,179,0
1.20416933816,0.183730536936,0.213760465386,0.241748316265,0.419,0.45,0,0,2,180,0
0.222944278803,0.498157692159,1.05362413156,0.290894226914,0.427,0.45,2,2,2,181,0
0.239192558773,1.02354880835,0.20099558085,0.113685868509,0.395,0.45,1,1,2,182,0
0.280789130065,0.0892664358668,0.271484686204,1.07427887872,0.423,0.45,3,3,2,183,0
0.170301807984,1.01169677523,0.239299789737,0.159072740514,0.366,0.45,1,1,2,184,0
0.104562383449,0.577535705258,1.03953717209,0.182242418726,0.401,0.45,2,2,2,185,0
0.0671403672818,0.167130880922,0.703223535857,1.04319714928,0.43,0.45,3,3,2,186,0
1.14955292298,0.172118919413,0.192679446845,0.164998372805,0.389,0.45,0,0,2,187,0
0.664408019421,1.05810155976,0.343973635986,0.175633315706,0.457,0.45,1,1,1,188,0
1.08904990008,0.106453109788,0.239358148179,0.250984736666,0.413,0.45,0,0,2,189,0
0.0626143766989,0.0225437588113,0.442696487629,1.00589409302,0.382,0.45,3,3,2,190,0
0.232317251792,0.132887543656,1.09014719877,0.327071408144,0.516,0.45,2,2,1,191,0
1.11089746349,0.496094532382,0.193111407301,0.0529898271114,0.455,0.45,0,0,1,192,0
0.201193617503,0.264063591086,1.03380826004,0.184251294505,0.396,0.45,2,2,2,193,0
0.298107201355,0.081588148749,0.367793593889,1.00898230837,0.478,0.45,3,3,1,194,0
0.0537556850253,0.824079260116,1.02633834653,0.240884671709,0.424,0.45,1,2,-1,195,0
0.434654689687,0.0167505673155,0.223104259878,1.09791961487,0.426,0.45,3,3,2,196,0
0.145886763958,0.328278779697,1.10294162064,0.266162617318,0.483,0.45,2,2,1,197,0
0.251377415321,1.03218415222,0.174545478658,0.106560822267,0.425,0.45,1,1,2,198,0
0.198236690903,0.17360202996,1.06157858036,0.203928520624,0.385,0.45,2,2,2,199,0
1.16378157967,0.175785164423,0.228910690843,0.221984530013,0.372,0.45,0,0,2,200,0
0.343556103965,1.11813615352,0.289605167001,0.190487356901,0.34,0.45,1,1,2,201,0
1.07203578747,0.302884411591,0.193122988137,0.216070550399,0.395,0.45,0,0,2,202,0
0.230719568561,0.110803953611,0.258740604535,1.06551846511,0.411,0.45,3,3,2,203,0
1.14012029313,0.246481637043,0.144136605293,0.123496441327,0.347,0.45,0,0,2,204,0
0.132291476164,0.276349517789,1.09931172684,0.16612233906,0.353,0.45,2,2,2,205,0
0.460623223156,0.103097336049,0.162644909701,1.05986217339,0.416,0.45,3,3,2,206,0
0.264782554652,1.17393202138,0.220238608495,0.344766366314,0.339,0.45,1,1,2,207,0
0.208506775261,0.0297234393832,0.576040376382,1.09025652886,0.37,0.45,3,3,2,208,0
0.23346404477,0.0724876795732,1.11288083601,0.34273843912,0.401,0.45,2,2,2,209,0
0.336404833472,1.04745283918,0.653810645619,0.223260826575,0.377,0.45,1,1,2,210,0
1.11448965921,0.1804182408,0.177090930231,0.270861403951,0.342,0.45,0,0,2,211,0
0.25290686114,1.02663958357,0.311672182413,0.171324033369,0.404,0.45,1,1,2,212,0
0.114452869266,1.0647535252,0.278426473026,0.280531192186,0.354,0.45,2,1,-1,213,0
1.16582394234,0.326773102032,0.207716587646,0.275993375728,0.395,0.45,0,0,2,214,0
0.237592446456,0.0998102960556,0.263531381056,1.00432541638,0.364,0.45,3,3,2,215,0
1.170658409,0.509919426551,0.18709453097,0.17983412804,0.42,0.45,0,0,2,216,0
1.22934159483,0.207531737498,0.173969585745,0.138242065618,0.379,0.45,0,0,2,217,1
0.224709168103,0.236598860758,1.07111285568,0.241261542071,0.35,0.45,2,2,2,218,1
0.338410288605,0.175945166572,0.28427376663,1.00172506967,0.329,0.45,3,3,2,219,1
0.969659868289,1.16133808308,0.186744663923,0.145788390081,0.341,0.45,1,1,2,220,1
0.45076144647,0.0778810052286,0.205289378287,1.10814072534,0.413,0.45,3,3,2,221,1
0.185937868406,0.327318482023,1.00357609766,0.228029326973,0.409,0.45,2,2,2,222,1
0.283854136652,1.14194471202,0.199096217185,0.106257945806,0.316,0.45,1,1,2,223,1
1.10692394003,0.21381247896,0.138493233907,0.183349355219,0.275,0.45,0,0,2,224,1
0.201006331358,0.144196823884,0.369816498801,1.10758218766,0.347,0.45,3,3,2,225,1
1.14877077144,0.214461100868,0.201464606101,0.220438364671,0.397,0.45,0,0,2,226,1
0.52122794805,1.06315763499,0.226474618283,0.159090977881,0.363,0.45,1,1,2,227,1
0.288437555174,0.327368586518,1.0022286284,0.284464215697,0.343,0.45,2,2,2,228,1
1.03383185046,0.352340588953,0.271185536714,0.341402868554,0.39,0.45,0,0,2,229,1
0.186342484549,0.242161022243,1.10270017082,0.263208755968,0.344,0.45,2,2,2,230,1
0.358208961844,0.165353782948,0.265488955834,1.06839011188,0.345,0.45,3,3,2,231,1
0.361104772194,1.02305898998,0.332352543401,0.120601098785,0.37,0.45,1,1,2,232,1
0.374531760148,0.171742550519,1.05478230803,0.19050326415,0.437,0.45,2,2,2,233,1
0.241696351579,1.15822507407,0.226865513896,0.136576538646,0.364,0.45,1,1,2,234,1
0.0987113912724,0.0745285998149,0.848872650733,1.04693100114,0.413,0.45,3,3,2,235,1
1.00325295571,0.16914178592,0.157780269612,0.142486392062,0.333,0.45,0,0,2,236,1
0.227533333272,0.0638738998919,0.692486983239,1.0653122986,0.394,0.45,3,3,2,237,1
0.159867958304,0.443014967176,1.03874184594,0.212425642849,0.365,0.45,2,2,2,238,1
1.04985312623,0.14093856346,0.107702642772,0.167178780434,0.338,0.45,0,0,2,239,1
0.299420548246,1.07050976322,0.189240586493,0.14875300507,0.345,0.45,1,1,2,240,1
1.01318519869,0.0959508837927,0.155474353672,0.274926087829,0.358,0.45,0,0,2,241,1
0.19740557156,0.135606337453,1.05225687636,0.216982505178,0.375,0.45,2,2,2,242,1
0.234221364706,0.0571073014204,0.235839851359,1.14587303599,0.334,0.45,3,3,2,243,1
0.368943166949,1.08018068435,0.239066784252,0.140354399007,0.297,0.45,1,1,2,244,1
0.150012169686,0.147687027553,1.09881490181,0.145558043306,0.377,0.45,2,2,2,245,1
0.533138967486,1.12689012801,0.313242785181,0.119256229689,0.386,0.45,1,1,2,246,1
0.226724156383,0.0629391869163,0.417298604857,1.1284154143,0.408,0.45,3,3,2,247,1
0.112061173225,0.105638407954,1.09773483176,0.284743626321,0.426,0.45,2,2,2,248,1
1.00682446184,0.162009824463,0.0981472579251,0.226248491156,0.345,0.45,0,0,2,249,1
0.577126799941,1.04430645222,0.153892782926,0.149879910166,0.31,0.45,1,1,2,250,1
1.03397289958,0.160762241573,0.395277197023,0.324123084431,0.374,0.45,0,0,2,251,1
0.264583622579,0.0672335902799,0.239834636462,1.04501423555,0.355,0.45,3,3,2,252,1
1.14228335592,0.328477132166,0.210233291621,0.0599726948939,0.391,0.45,0,0,2,253,1
0.286243528944,0.0704313819302,0.364924022564,1.00266358377,0.42,0.45,3,3,2,254,1
0.227122589103,0.680141696954,1.08161504101,0.201113233142,0.411,0.45,2,2,2,255,1
0.738552800095,1.14439191887,0.106619714771,0.147792976247,0.364,0.45,1,1,2,256,1
0.197298315233,0.0940807521768,1.07848176369,0.172902672466,0.397,0.45,2,2,2,257,1
0.0367612411122,0.0197659390436,0.378741775291,1.05945590368,0.39,0.45,3,3,2,258,1
0.385108350049,1.02670110959,0.257426261007,0.209328794293,0.334,0.45,1,1,2,259,1
0.206290463757,0.0346202064969,0.442351831953,1.10801915756,0.382,0.45,3,3,2,260,1
1.11899013637,0.0390599352882,0.0990637504482,0.253694530876,0.36,0.45,0,0,2,261,1
0.208342253634,1.03977364497,0.158112269556,0.186328812526,0.329,0.45,1,1,2,262,1
1.05307471978,0.0470377978533,0.160317257328,0.264178944592,0.365,0.45,0,0,2,263,1
0.107934763106,0.350422245811,1.04685421411,0.546990712897,0.439,0.45,2,2,2,264,1
1.11784483389,0.109089776939,0.10146152435,0.28767864019,0.367,0.45,0,0,2,265,1
0.0887019379765,1.17081928362,0.689189806618,0.070453270699,0.401,0.45,1,1,2,266,1
0.22068519918,0.216134827647,1.08236613367,0.0964879082585,0.381,0.45,2,2,2,267,1
0.191746609397,0.0245418606757,0.846565792763,1.06229828859,0.368,0.45,3,3,2,268,1
0.432845280122,1.30764453708,0.102721091818,0.0878236301441,0.4,0.45,1,1,2,269,1
0.0880980669337,0.100895539098,1.02032928376,0.203991004263,0.42,0.45,3,2,-1,270,1
0.106010021343,0.594629927071,1.00254451763,0.485364723769,0.498,0.45,2,2,1,271,1
0.171690991246,1.12648691515,0.11365253532,0.0394377904606,0.412,0.45,1,1,2,272,1
1.13476567266,0.239853211383,0.0782397175773,0.0532039745252,0.357,0.45,0,0,2,273,1
0.235656526204,0.1413473179,0.301649540166,1.00416959152,0.354,0.45,3,3,2,274,1
1.13804501573,0.315042573735,0.0786849171572,0.0748281987351,0.373,0.45,0,0,2,275,1
0.1841731928,0.144815128497,1.02284767648,0.0962435922899,0.352,0.45,2,2,2,276,1
1.08453293661,0.188986185375,0.152335209088,0.15483350985,0.324,0.45,0,0,2,277,1
0.292113174103,0.124429114014,0.445561769352,1.02396065712,0.455,0.45,3,3,1,278,1
0.115474850004,0.154670437287,1.01906169584,0.14146010112,0.435,0.45,2,2,2,279,1
0.471048704254,1.10659203863,0.159017166852,0.0929669622551,0.357,0.45,1,1,2,280,1
0.330385325792,0.14207364586,1.00629536917,0.481105833658,0.431,0.45,2,2,2,281,1
0.227282316022,0.113177794539,0.238052137623,1.0436607139,0.342,0.45,3,3,2,282,1
0.588076888011,1.07539892814,0.148018645368,0.125554184426,0.345,0.45,1,1,2,283,1
1.05063825658,0.146958336305,0.0236673294734,0.114205961978,0.354,0.45,0,0,2,284,1
0.181502424841,0.09244317589,1.1377715727,0.262620816042,0.358,0.45,2,2,2,285,1
1.11655259415,0.230324020395,0.261728827339,0.297289483078,0.438,0.45,0,0,2,286,1
0.413312739108,1.27456374614,0.280442147917,0.241491380949,0.477,0.45,1,1,1,287,1
0.36867823552,0.102139700896,0.330375776328,1.06476259793,0.436,0.45,3,3,2,288,1
1.05666231537,0.674800805939,0.0643082371122,0.0914810885573,0.402,0.45,0,0,2,289,1
0.237725579803,0.0232117966118,0.274634674633,1.10584984237,0.407,0.45,3,3,2,290,1
0.472454302675,0.0222340719769,1.07653000376,0.236489225661,0.441,0.45,2,2,2,291,1
0.355391740635,1.10911429837,0.124537159417,0.0836471194671,0.363,0.45,1,1,2,292,1
0.291169685837,0.158263409496,1.06361778536,0.0835858571928,0.408,0.45,2,2,2,293,1
0.310884429183,0.0347387506308,0.450888482371,1.03915047651,0.373,0.45,3,3,2,294,1
0.474109166963,1.04150078266,0.186996279321,0.206348277426,0.343,0.45,1,1,2,295,1
1.14731760908,0.195474126605,0.174854999057,0.193263245633,0.39,0.45,0,0,2,296,1
0.331231917473,0.286085307553,1.03795121082,0.224322998292,0.342,0.45,2,2,2,297,1
0.608859132281,1.02781852692,0.224228240347,0.191077853471,0.357,0.45,0,1,-1,298,1
0.387260755299,0.0446778951949,1.05886973965,0.230488130197,0.398,0.45,1,2,-1,299,1
0.298942586649,0.0393810915983,0.615699424916,1.05481385115,0.437,0.45,3,3,2,300,1
1.02372182944,0.0317628293896,0.0341414862259,0.192198392988,0.261,0.45,0,0,2,301,1
0.282694851188,1.02355182323,0.0706260822489,0.139825644979,0.385,0.45,1,1,2,302,1
0.298795832873,0.0499559919181,0.31718323402,1.04802242247,0.396,0.45,3,3,2,303,1
0.730717775985,0.0451841696542,1.05100981787,0.138244298613,0.465,0.45,2,2,1,304,1
0.194422795591,0.0937612866733,0.552027034752,1.00714519538,0.453,0.45,3,3,1,305,1
0.378236829842,1.21149898874,0.0741713919707,0.072663997406,0.421,0.45,1,1,2,306,1
0.151536447608,0.45964550441,1.00995462537,0.0399188883232,0.398,0.45,2,2,2,307,1
1.09022152081,0.274259567384,0.0554698689491,0.128171637376,0.409,0.45,0,0,2,308,1
0.255465952934,0.229940988986,1.02151913506,0.213077609031,0.373,0.45,2,2,2,309,1
1.0216426835,0.392354937113,0.0912898553347,0.191895560308,0.356,0.45,1,0,-1,310,1
1.06831000573,0.18140025917,0.0383044340216,0.129153230451,0.365,0.45,0,0,2,311,1
0.22683982646,0.131996858993,0.274095068258,1.02556227057,0.349,0.45,3,3,2,312,1
1.12166933256,0.176735257246,0.113330024467,0.209903279904,0.321,0.45,0,0,2,313,1
0.142012098704,0.3162158759,1.07106141225,0.301635811251,0.425,0.45,2,2,2,314,1
0.315338042246,1.15439600358,0.123746676504,0.0835611762497,0.334,0.45,1,1,2,315,1
0.201485904742,0.0803197047264,0.323186396842,1.0368538622,0.43,0.45,3,3,2,316,1
0.167352391388,0.21417707559,1.08139074398,0.302708286774,0.42,0.45,2,2,2,317,1
0.161586722942,0.0810091994269,0.220534198202,1.12650715211,0.44,0.45,3,3,2,318,1
0.355167010368,1.0836586943,0.136988764264,0.104301237633,0.346,0.45,1,1,2,319,1
1.09620664303,0.118790882388,0.152961945271,0.265293235222,0.35,0.45,0,0,2,320,1
0.140417197926,0.112562078474,1.04379061554,1.16630713663,0.39,0.45,3,3,2,321,1
1.08718239267,0.170776570799,0.103172495998,0.214165591148,0.447,0.45,0,0,2,322,1
0.232223729065,1.09557026537,0.107160284372,0.162156994623,0.448,0.45,1,1,2,323,1
0.354704463934,0.180496108704,1.11510821319,0.289873237016,0.421,0.45,2,2,2,324,1
1.11219001114,0.183179004252,0.0589122660662,0.200488696355,0.356,0.45,0,0,2,325,1
0.197704891944,0.100597440488,1.06827292873,0.258232586559,0.315,0.45,2,2,2,326,1
0.292775459308,0.0515253941713,0.207735029989,1.0666211383,0.399,0.45,3,3,2,327,1
0.40316296043,1.18882544407,0.147364969791,0.213076278276,0.341,0.45,1,1,2,328,1
0.265238023397,0.0379972523171,0.497575034703,1.09358410492,0.391,0.45,3,3,2,329,1
0.227734206718,0.0792061147731,1.01996640519,0.408318376373,0.399,0.45,2,2,2,330,1
0.383564837888,1.03753717498,0.0768471178202,0.319211291816,0.375,0.45,1,1,2,331,1
1.11909988992,0.0816693096997,0.0668125002052,0.31583528174,0.346,0.45,0,0,2,332,1
0.213908654656,1.10243812366,0.150730101256,0.134133999616,0.405,0.45,1,1,2,333,1
0.214073011182,0.0856749246661,1.08311499914,0.183041071617,0.356,0.45,2,2,2,334,1
1.02261754266,0.515043133336,0.0548526567756,0.166295980039,0.389,0.45,0,0,2,335,1
0.252720377273,0.0387299604458,0.385218435981,1.15431988143,0.404,0.45,3,3,2,336,1
1.03390985301,0.219354804157,0.0430850698154,0.139020599264,0.416,0.45,0,0,2,337,1
0.379943781934,0.0448597118955,1.01073154775,0.190094113949,0.375,0.45,2,2,2,338,1
0.557673255345,1.04947260003,0.134385928897,0.22430055585,0.405,0.45,1,1,2,339,1
0.469438699757,0.0596096679244,0.131752163336,1.15958881517,0.439,0.45,3,3,2,340,1
0.482287070399,1.13430273358,0.234513227645,0.300063353814,0.35,0.45,1,1,2,341,1
0.415756207045,0.30407230343,1.08127454208,0.314689621569,0.325,0.45,2,2,2,342,1
0.376785753673,0.146009989149,0.241210275601,1.04007273021,0.44,0.45,3,3,2,343,1
1.08812880531,0.087419007948,0.0603285682164,0.276859916147,0.389,0.45,0,0,2,344,1
0.2416990215,0.121810989021,0.338840837607,1.170201521,0.455,0.45,3,3,1,345,1
0.458427902473,0.12432057713,0.321585130588,1.01624851284,0.471,0.45,2,3,-1,346,1
1.15566468391,0.289453985761,0.0769120989009,0.274295101487,0.471,0.45,0,0,1,347,1
0.250605811447,1.00416566004,0.705824550458,0.10235041207,0.418,0.45,1,1,2,348,1
1.07938423803,0.114596838853,0.146783624862,0.264749464188,0.375,0.45,0,0,2,349,1
0.453430542518,1.16932944853,0.130512360836,0.126660430656,0.402,0.45,1,1,2,350,1
0.214502151637,0.162997141592,1.02329986163,0.151079332078,0.367,0.45,2,2,2,351,1
0.381496063935,0.0301959678091,0.142315220358,1.05447809739,0.385,0.45,3,3,2,352,1
0.14156303315,0.295727286028,1.05670167709,0.723005031697,0.43,0.45,2,2,2,353,1
0.374700372508,1.06280671578,0.0885645452114,0.155457433076,0.398,0.45,1,1,2,354,1
0.254928937538,0.0677498009275,0.243114624203,1.00557127817,0.418,0.45,3,3,2,355,1
0.307619348899,1.12812496269,0.217732303687,0.287014210081,0.397,0.45,1,1,2,356,1
1.0799526926,0.203528567082,0.191371492356,0.295111827632,0.364,0.45,0,0,2,357,1
0.211444250781,0.201202571299,1.0199207291,0.309901327641,0.345,0.45,2,2,2,358,1
1.04031830901,0.282229988444,0.145181644348,0.2997708794,0.393,0.45,0,0,2,359,1
0.244815675539,0.0895706174968,0.21575171441,1.09442394315,0.399,0.45,3,3,2,360,1
1.02332996427,0.173703200191,0.0326963961787,0.217079026062,0.345,0.45,0,0,2,361,1
0.280183109588,1.03910278585,0.387328429945,0.26450561357,0.388,0.45,1,1,2,362,1
0.150462207748,0.0216237143884,0.266061478153,1.01812447502,0.368,0.45,3,3,2,363,1
0.19932078769,0.564269517695,1.04427490109,0.278076456873,0.448,0.45,2,2,2,364,1
0.311938043154,1.10912340604,0.162417509065,0.162058255867,0.372,0.45,1,1,2,365,1
0.174541275197,0.041637907574,1.05581393389,0.551398959137,0.433,0.45,2,2,2,366,1
0.179159516255,0.0790541222606,0.20777639051,1.09102138384,0.361,0.45,3,3,2,367,1
0.354619898242,1.00022720963,0.0898392793248,0.0776839546016,0.351,0.45,1,1,2,368,1
1.05012719103,0.145358769717,0.0505052665252,0.188426844452,0.355,0.45,0,0,2,369,1
0.268987323609,0.151094630552,1.00977308893,0.286147589935,0.309,0.45,2,2,2,370,1
1.10737311701,0.111429227901,0.223753121201,0.569654759891,0.395,0.45,0,0,2,371,1
0.206942888413,0.0458152511666,0.278765715236,1.03505945602,0.317,0.45,3,3,2,372,1
1.14722590954,0.0280927459173,0.0903676277955,0.22025334929,0.414,0.45,0,0,2,373,1
0.478266241088,0.0476037026811,0.170245014497,1.05530185475,0.323,0.45,3,3,2,374,1
0.364460044599,1.11191680892,0.164117345757,0.101890767069,0.342,0.45,1,1,2,375,1
0.298618085576,0.369028657893,1.02616076464,0.234847969847,0.417,0.45,2,2,2,376,1
0.262173413733,0.167912645387,0.436205117619,1.12216426233,0.438,0.45,3,3,2,377,1
0.312101474862,0.439891197032,1.02671060185,0.330560353854,0.396,0.45,2,2,2,378,1
0.387525998313,1.18990813218,0.175971573393,0.174079902628,0.366,0.45,1,1,2,379,1
1.02852849737,0.17075756948,0.135926951445,0.308465630424,0.375,0.45,0,0,2,380,1
0.418870996585,1.14075000464,0.262081868451,0.180077096887,0.347,0.45,1,1,2,381,1
0.25979473936,0.132128752317,0.477087538303,1.02105003105,0.367,0.45,3,3,2,382,1
1.03644382884,0.207965000089,0.199436513615,0.321483154135,0.383,0.45,0,0,2,383,1
0.25231838398,0.229230127714,1.03310839805,0.2832647224,0.383,0.45,2,2,2,384,1
1.05750934346,0.154631926827,0.148452659309,0.386991926174,0.345,0.45,0,0,2,385,1
0.324273136705,0.110362065023,0.451900357979,1.03703723461,0.37,0.45,3,3,2,386,1
0.545011015603,1.1418307297,0.218105760568,0.374201891376,0.391,0.45,1,1,2,387,1
0.208636297615,0.261168690747,1.04126470636,0.285681329847,0.347,0.45,2,2,2,388,1
0.432327723583,1.03510902673,0.200283954742,0.148070392661,0.322,0.45,1,1,2,389,1
0.236650225514,0.281818382392,0.353227645236,1.05619909866,0.262,0.45,3,3,2,390,1
0.3395248944,1.03863479508,0.562801133943,0.515355684202,0.468,0.45,2,1,-1,391,1
0.218267744521,0.0500495903606,0.486688031952,1.07844884345,0.523,0.45,3,3,1,392,1
1.07297221507,0.041551720403,0.150722260778,0.465139190909,0.427,0.45,0,0,2,393,1
0.225398024073,0.0443323517586,1.00288863077,0.224617734063,0.381,0.45,2,2,2,394,1
1.18636504121,0.0490675583834,0.125844683323,0.254973583515,0.43,0.45,0,0,2,395,1
0.235378630411,1.14106588936,0.164928102934,0.32449317505,0.466,0.45,1,1,1,396,1
1.09224169708,0.16051246328,0.308111818905,0.17444743149,0.454,0.45,0,0,1,397,1
0.14877519907,0.684155065478,1.02426010227,0.306675664267,0.436,0.45,2,2,2,398,1
0.284644143056,0.138926892097,0.416711737996,1.01768352734,0.44,0.45,3,3,2,399,1
0.444043835572,1.12812152755,0.114312854102,0.114210176254,0.354,0.45,1,1,2,400,1
0.258178888048,0.0919170502275,0.216814503048,1.20812043212,0.321,0.45,3,3,2,401,1
0.152163964108,0.397775268055,1.03088481419,0.393475184421,0.369,0.45,2,2,2,402,1
0.462867871713,1.04834897929,0.258307337485,0.220021783207,0.343,0.45,1,1,2,403,1
0.206614400303,0.149993342078,1.0482043288,0.187270587199,0.376,0.45,2,2,2,404,1
1.00856402613,0.203105371988,0.274920403082,0.329656938849,0.39,0.45,0,0,2,405,1
0.402506847276,1.13688855304,0.245628181078,0.208159682569,0.415,0.45,1,1,2,406,1
1.08823022124,0.322423734715,0.195240361053,0.361538127649,0.381,0.45,0,0,2,407,1
0.263735656581,0.15847531774,0.240839264147,1.11850650368,0.352,0.45,3,3,2,408,1
1.05841121228,0.263484832499,0.164861533423,0.329194317522,0.443,0.45,0,0,2,409,1
0.192886991413,0.168421107266,0.3204946054,1.05700944078,0.422,0.45,3,3,2,410,1
0.280303159453,0.185258013939,1.01945993515,0.250110124238,0.444,0.45,2,2,2,411,1
0.316362462007,1.00848170257,0.196434095128,0.23230991876,0.37,0.45,1,1,2,412,1
0.167955323365,0.0860520477327,1.06572104385,0.276793006635,0.428,0.45,2,2,2,413,1
0.185730980176,0.0445284236114,0.294461071797,1.08034540627,0.38,0.45,3,3,2,414,1
1.01146848746,0.978169614641,0.201896370661,0.228201629912,0.458,0.45,1,0,-1,415,1
1.09741840404,0.325291894635,0.147235754366,0.256070583555,0.421,0.45,0,0,2,416,1
0.158441674384,0.264572771372,1.04921466017,0.243160459833,0.346,0.45,2,2,2,417,1
1.13070751981,0.272907973539,0.066022291055,0.249784658007,0.387,0.45,0,0,2,418,1
0.559892362743,1.0491793214,0.409099950411,0.181219222744,0.451,0.45,1,1,1,419,1
0.0679552260413,0.158714984734,0.960276479083,1.00952806592,0.493,0.45,3,3,1,420,1
1.13211013763,0.292267635663,0.043750417125,0.209687879758,0.459,0.45,0,0,1,421,1
0.389512404388,0.0337817609458,0.13783203825,1.02645012452,0.391,0.45,3,3,2,422,1
1.00124256983,0.0315422083455,0.0068163431109,0.199859793938,0.319,0.45,1,0,-1,423,1
0.0643327194772,0.34336589569,1.0109543427,0.417136656681,0.362,0.45,2,2,2,424,1
0.0872040036033,1.2537477366,0.316031787754,0.19321640178,0.382,0.45,1,1,2,425,1
0.105422550239,0.0541398387524,0.285575149911,1.22404363354,0.371,0.45,3,3,2,426,1
0.15464544038,1.03666146582,0.427611665037,0.232534133788,0.364,0.45,2,1,-1,427,1
1.12859379241,0.439698440596,0.130647134006,0.107035372418,0.407,0.45,0,0,2,428,1
0.17655841847,0.210273495958,1.03714131949,0.273006955939,0.324,0.45,2,2,2,429,1
0.350752930324,0.114647806974,0.143666992866,1.08996650642,0.404,0.45,3,3,2,430,1
1.03081213648,0.506208307786,0.0419593934609,0.182396981294,0.42,0.45,0,0,2,431,1
0.470554530451,1.05303237323,0.246495951044,0.23977876463,0.487,0.45,1,1,1,432,1
1.03635821322,0.894597243124,0.165087212922,0.204351589675,0.51,0.45,0,0,1,433,1
0.140024417979,1.08601705603,0.145938257847,0.0751482337258,0.517,0.45,1,1,1,434,2
1.18058082381,0.438626453011,0.320638106582,0.379013750952,0.455,0.45,0,0,1,435,2
0.106026792893,0.173959715633,0.440759761849,1.10530486628,0.358,0.45,3,3,2,436,2
0.16365280462,0.408408318195,1.08736285179,0.290230671641,0.381,0.45,2,2,2,437,2
0.268482362066,0.258413504392,0.180906212137,1.07722542067,0.434,0.45,3,3,2,438,2
1.00962819785,0.351225391925,0.0865613283575,0.163663643644,0.373,0.45,0,0,2,439,2
0.149145845445,0.801951217511,1.14496299021,0.272219819967,0.378,0.45,2,2,2,440,2
0.523841389626,1.12797011679,0.102050847978,0.159394775189,0.36,0.45,0,1,-1,441,2
0.343195113679,1.08608260342,0.455591918915,0.26087478333,0.382,0.45,1,1,2,442,2
0.0755900075196,0.157774528915,1.03298574356,0.286240731747,0.179,0.45,2,2,2,443,2
1.04737950296,0.242061429607,0.119407092459,0.293023721792,0.291,0.45,1,0,-1,444,2
0.0934646186762,0.0992943788287,0.270929661681,1.03542157502,0.407,0.45,3,3,2,445,2
0.267736050427,1.12357681037,0.149938877621,0.234655229315,0.333,0.45,1,1,2,446,2
0.147067597108,0.135833398453,0.69102742622,1.04489643618,0.361,0.45,3,3,2,447,2
0.140954192375,0.210109328856,1.03558273156,0.30437877205,0.36,0.45,2,2,2,448,2
1.10931217464,0.690358242998,0.0868868734908,0.283800060913,0.42,0.45,0,0,2,449,2
0.173246705711,0.0628025231218,0.46343806311,1.01919527588,0.402,0.45,3,3,2,450,2
1.08100108096,0.499628453381,0.0614374697938,0.24269577768,0.413,0.45,0,0,2,451,2
0.180945147282,0.287622449115,1.01984852871,0.225412285135,0.365,0.45,2,2,2,452,2
0.206271921238,1.03220732962,0.147643242846,0.171803477444,0.343,0.45,1,1,2,453,2
0.22693596682,0.205259509533,1.01887605144,0.687814166488,0.433,0.45,2,2,2,454,2
0.18506707465,0.0322161688976,0.372667701556,1.02010143264,0.472,0.45,3,3,1,455,2
0.195442102126,1.24453369069,0.0420851948122,0.0861582369438,0.413,0.45,1,1,2,456,2
1.00925454164,0.109489569244,0.0849991962724,0.132183094856,0.404,0.45,0,0,2,457,2
0.292336151983,1.12519149324,0.107553181258,0.0897455512822,0.389,0.45,1,1,2,458,2
0.226755440282,0.259132803312,1.0893962669,0.271534523757,0.362,0.45,2,2,2,459,2
0.229336628267,0.17224355603,0.407762793905,1.135686512,0.324,0.45,3,3,2,460,2
1.06496884369,0.182763033478,0.0668784425347,0.150981136868,0.392,0.45,0,0,2,461,2
0.155707642431,0.842811954542,1.12692076682,0.213828719201,0.42,0.45,2,2,2,462,2
1.01591058865,0.327655996428,0.0502029742779,0.195904126123,0.424,0.45,0,0,2,463,2
0.139813293427,0.0984551213514,0.569980777663,1.14752741826,0.449,0.45,3,3,2,464,2
0.396608424504,1.07399311118,0.172256772345,0.214551872349,0.438,0.45,1,1,2,465,2
0.089812502265,0.0490811427252,1.00869999157,0.770409489171,0.389,0.45,3,2,-1,466,2
0.0774835017348,0.0387062711713,1.07395290587,0.597616367185,0.44,0.45,2,2,2,467,2
0.223163933329,1.01869033104,0.949561392221,0.311052150303,0.452,0.45,1,1,1,468,2
1.17142648101,0.288087770955,0.0560752172746,0.137650949178,0.384,0.45,0,0,2,469,2
0.213265498921,1.12552931791,0.218281321627,0.144050228763,0.432,0.45,1,1,2,470,2
1.20111555315,0.186810318623,0.156541522836,0.136254906489,0.419,0.45,0,0,2,471,2
0.131945229091,0.131929556603,0.204307555946,1.03748101211,0.389,0.45,3,3,2,472,2
0.290249971083,0.186369149838,1.00111834035,0.292963847437,0.378,0.45,2,2,2,473,2
1.09195343438,0.226840793997,0.0362210474933,0.131480777341,0.385,0.45,0,0,2,474,2
0.160156219526,0.160472345772,1.07394881667,0.240212470639,0.468,0.45,2,2,1,475,2
0.257036732099,0.0659700514541,0.165196654996,1.10370841998,0.423,0.45,3,3,2,476,2
1.0964849966,0.164716327953,0.0109967236682,0.116151877072,0.421,0.45,0,0,2,477,2
0.264649914993,1.03264400351,0.28648616428,0.145498135501,0.471,0.45,1,1,1,478,2
0.0626952912666,0.0473860588223,0.168767914398,1.02947108125,0.41,0.45,3,3,2,479,2
0.236199381282,1.15099872997,0.0849058349262,0.0276107498972,0.379,0.45,1,1,2,480,2
0.0494944043179,0.0473933339712,1.06722647103,0.392823111999,0.432,0.45,2,2,2,481,2
0.160359905197,1.08229987994,0.112744802853,0.121813720713,0.4,0.45,1,1,2,482,2
1.02258323806,0.0831416597007,0.166086376184,0.205990499734,0.386,0.45,0,0,2,483,2
0.180416743311,0.102997048125,0.251618905187,1.05512318853,0.423,0.45,3,3,2,484,2
0.205906150525,0.370028896397,1.06642802265,0.235599872898,0.449,0.45,2,2,2,485,2
0.235435741703,0.102315036929,0.430397757327,1.00165803417,0.533,0.45,3,3,1,486,2
1.00111859042,0.182518896272,0.071528609592,0.216838983623,0.445,0.45,0,0,2,487,2
0.105236852298,0.311869185447,1.10066204005,0.235533136723,0.412,0.45,2,2,2,488,2
1.09702840125,0.277399218577,0.0882824987733,0.246998128641,0.423,0.45,0,0,2,489,2
0.502894155627,1.1391340225,0.112068175273,0.165738346066,0.49,0.45,1,1,1,490,2
0.140799761085,0.0474178212135,0.249817335683,1.00875318865,0.428,0.45,3,3,2,491,2
0.33564902934,1.15101132216,0.188798168757,0.231545537885,0.369,0.45,1,1,2,492,2
0.126486014017,0.157872841217,1.08059566319,0.348833602301,0.408,0.45,2,2,2,493,2
1.05175721707,0.248987436185,0.208510055899,0.247954771819,0.386,0.45,1,0,-1,494,2
0.351271978174,0.0548396466549,0.190194688886,1.1038935936,0.404,0.45,3,3,2,495,2
0.197280652306,0.136521594736,1.02532023141,0.209630449524,0.405,0.45,2,2,2,496,2
1.10894103914,0.220217925173,0.251049559995,0.300665456495,0.384,0.45,0,0,2,497,2
0.0994322628423,0.209103225755,1.08825246679,0.283283239685,0.407,0.45,2,2,2,498,2
0.0949859130074,0.056216083337,0.948815900058,1.21854460178,0.378,0.45,3,3,2,499,2
1.03301833902,0.518875436861,0.277552199389,0.186026339453,0.47,0.45,0,0,1,500,2
0.172644793697,0.183002131313,0.281248318112,1.06938316927,0.337,0.45,3,3,2,501,2
0.260051378698,0.310292813299,1.03218219972,0.246220978713,0.314,0.45,1,2,-1,502,2
1.01055897375,0.0982258425287,0.0671039268162,0.202214613698,0.314,0.45,0,0,2,503,2
1.03124819572,0.755614010419,0.249830232812,0.218767713738,0.491,0.45,1,0,-1,504,2
0.0577469689795,0.051580968998,1.11081001093,0.218044519168,0.361,0.45,2,2,2,505,2
0.267121782496,1.12480142284,0.165097738826,0.190602909175,0.322,0.45,1,1,2,506,2
1.18217305581,0.160683626099,0.0808387811825,0.312482236486,0.306,0.45,0,0,2,507,2
0.227924044502,0.141547617426,0.298480000892,1.09590419921,0.419,0.45,3,3,2,508,2
0.0947022117542,0.303456831701,1.05237583756,0.358519359798,0.408,0.45,2,2,2,509,2
1.03237171186,0.178159693273,0.0227234846203,0.118700718705,0.36,0.45,0,0,2,510,2
0.14552245249,0.287213545275,1.12639987902,0.334362905967,0.378,0.45,2,2,2,511,2
0.313541876914,0.123765149294,0.147993898756,1.08453103861,0.365,0.45,3,3,2,512,2
1.01406625608,0.0990007106971,0.0700220348042,0.199431184231,0.385,0.45,0,0,2,513,2
0.256443369654,1.17454812343,0.157043589147,0.172611626974,0.393,0.45,1,1,2,514,2
0.121558683465,0.190367269541,1.04322294186,0.32505490789,0.305,0.45,2,2,2,515,2
0.345937865916,1.0720247855,0.112690375395,0.24240781184,0.408,0.45,1,1,2,516,2
0.21451984371,0.0138314931237,0.110692801131,1.13899367508,0.397,0.45,3,3,2,517,2
0.27633654666,1.16591236042,0.0505475595612,0.217125593608,0.379,0.45,1,1,2,518,2
1.1180134987,0.197515005941,0.0769357879124,0.296050066043,0.391,0.45,0,0,2,519,2
0.216125582998,0.28255295596,1.08541973743,0.297563579814,0.331,0.45,2,2,2,520,2
0.187172846773,0.0731898156262,0.315787683629,1.02467537853,0.352,0.45,3,3,2,521,2
1.1249660089,0.165681929347,0.0740606383266,0.253286126494,0.402,0.45,0,0,2,522,2
0.14426935899,0.126538588595,1.05056738995,0.764568171951,0.377,0.45,3,2,-1,523,2
0.264887229882,0.090501651265,1.01171891418,0.475454687663,0.393,0.45,2,2,2,524,2
0.372669049293,1.12093911371,0.0802968137218,0.266878827426,0.347,0.45,1,1,2,525,2
0.0720530005362,0.0532654509079,1.0502038479,0.295029251801,0.366,0.45,2,2,2,526,2
1.03719269242,0.750047667374,0.0444270400083,0.18848554579,0.434,0.45,0,0,2,527,2
0.673780257711,1.0755086674,0.0840318078949,0.224075807835,0.477,0.45,1,1,1,528,2
0.0827448636484,0.0135956364237,0.312105929143,1.10077017695,0.403,0.45,3,3,2,529,2
0.196624038021,1.06371689325,0.13225170031,0.149179148837,0.39,0.45,1,1,2,530,2
0.181250674514,1.11353745498,0.177173143798,0.265523661184,0.347,0.45,2,1,-1,531,2
0.28020112605,0.022397205071,0.240222893511,1.10180440551,0.349,0.45,3,3,2,532,2
1.16117367637,0.335364916334,0.0783659962312,0.208725097959,0.393,0.45,0,0,2,533,2
0.161061370957,0.122379458977,1.10760678511,0.318757192992,0.372,0.45,2,2,2,534,2
1.15834709482,0.0641999923208,0.0429582785602,0.324999194651,0.376,0.45,0,0,2,535,2
0.390482118716,0.0827656290483,0.0812120512733,1.13843597161,0.351,0.45,3,3,2,536,2
0.307407101837,1.12998373878,0.10742843895,0.247138799386,0.329,0.45,1,1,2,537,2
1.13761398565,0.0759609552443,0.0347709888523,0.301210806758,0.387,0.45,0,0,2,538,2
0.283468590525,1.22271578437,0.0318293786122,0.147974595019,0.395,0.45,1,1,2,539,2
0.180231076205,0.0147580414541,0.0554141968567,1.05522214975,0.422,0.45,3,3,2,540,2
0.136909279634,0.131350272526,1.00930908326,0.522818771381,0.505,0.45,2,2,1,541,2
0.119905642994,1.01006298948,0.0773846380886,0.185793952388,0.4,0.45,1,1,2,542,2
0.10080666205,0.0398793399135,0.112703442579,1.09950347881,0.414,0.45,3,3,2,543,2
0.151736800712,0.141758095908,1.00886270768,0.340428997755,0.404,0.45,2,2,2,544,2
1.08973971625,0.149497683467,-0.00131284117017,0.227181123614,0.414,0.45,0,0,2,545,2
0.0376429421047,0.148560497495,1.1320714542,0.338743883791,0.377,0.45,2,2,2,546,2
0.0887790807888,0.0511152913251,1.04445844316,1.07510233103,0.409,0.45,3,3,2,547,2
0.230618058665,1.06942798721,0.0255283403406,0.176524583107,0.384,0.45,0,1,-1,548,2
0.134747062313,1.0216974979,0.0360784262992,0.108112526841,0.419,0.45,1,1,2,549,2
1.13512173831,0.070401786459,0.0890074338252,0.385743871009,0.542,0.45,0,0,1,550,2
0.141989861721,0.0592522330338,0.212518494693,1.10884449667,0.401,0.45,3,3,2,551,2
0.234071454529,1.10759679423,0.635876047314,0.167283047853,0.399,0.45,1,1,2,552,2
0.0789973009824,0.284991634077,1.05452180656,0.220734525666,0.419,0.45,2,2,2,553,2
1.0888325557,0.0883181610507,0.138154887762,0.199209598888,0.394,0.45,1,0,-1,554,2
1.03642467297,0.39848221716,0.0229459243557,0.200611032862,0.41,0.45,0,0,2,555,2
0.14191022358,0.190977475613,0.262373324441,1.03756488537,0.437,0.45,3,3,2,556,2
0.103906304548,0.325873425889,1.01372058203,0.588087553115,0.398,0.45,2,2,2,557,2
1.17502462804,0.398766718932,0.0304702483057,0.264780444493,0.404,0.45,0,0,2,558,2
0.165004564633,1.14083485108,0.363271961063,0.655780551782,0.508,0.45,2,1,-1,559,2
0.119007280649,0.013023589269,0.770004604749,1.08687739093,0.435,0.45,3,3,2,560,2
0.0961179851427,1.15710005673,0.46924642197,0.277305030684,0.477,0.45,1,1,1,561,2
0.107680966046,0.0187997148905,0.651127984735,1.08248827874,0.419,0.45,3,3,2,562,2
1.20837618778,0.0210868429528,0.0854459172275,0.338547606789,0.392,0.45,0,0,2,563,2
0.117126842208,1.01695360595,0.142739353707,0.363402866968,0.448,0.45,1,1,2,564,2
0.162200280462,0.0712519980556,1.06658608771,0.297301949468,0.384,0.45,2,2,2,565,2
0.0552491626883,1.09136450694,0.153555190452,0.344468819496,0.434,0.45,1,1,2,566,2
0.0910176827425,0.0728762418797,1.04178215165,0.267043536075,0.397,0.45,2,2,2,567,2
1.03680780816,0.0740499288917,0.141065624215,0.25384254764,0.361,0.45,0,0,2,568,2
0.171033739421,0.0577334793267,0.335671292533,1.14402556598,0.392,0.45,3,3,2,569,2
0.147868296484,0.161775809439,1.04115555314,0.330567650241,0.378,0.45,2,2,2,570,2
0.321768982135,0.0723540802868,0.211580936887,1.09430936418,0.432,0.45,3,3,2,571,2
1.02606491163,0.0590950634917,0.0475383489777,0.33980776247,0.384,0.45,0,0,2,572,2
0.137604635816,1.05635292703,0.576406908203,0.414852383831,0.446,0.45,2,1,-1,573,2
0.539008539004,1.22572944365,0.137854168857,0.262229454863,0.415,0.45,1,1,2,574,2
0.0570870931159,0.0146317189915,0.187872364165,1.10875725133,0.375,0.45,3,3,2,575,2
0.135920771246,1.02370060031,0.485528205187,0.21482552204,0.396,0.45,1,1,2,576,2
1.0542819436,0.0855994534508,0.202747717555,0.194401912843,0.401,0.45,0,0,2,577,2
0.133218545628,1.17775916936,0.462250596398,0.210489272402,0.388,0.45,1,1,2,578,2
0.140657155039,0.021899292913,0.206145071657,1.0893522568,0.412,0.45,3,3,2,579,2
0.169747010107,0.282195455957,1.13715498691,0.218506654172,0.424,0.45,2,2,2,580,2
1.01905255619,0.264719553224,0.0619437245908,0.247224092042,0.421,0.45,0,0,2,581,2
0.182848692611,0.0676079861265,0.217771677143,1.10767761582,0.391,0.45,3,3,2,582,2
1.01601479422,0.214185997431,0.0948945874624,0.423595922219,0.371,0.45,0,0,2,583,2
0.272010425982,1.04225045755,0.231916657309,0.196103064624,0.374,0.45,2,1,-1,584,2
0.0575185432517,0.0172244126384,1.03275649266,0.251019724391,0.343,0.45,3,2,-1,585,2
0.377611686526,1.27296850781,0.130582691224,0.301887629591,0.376,0.45,1,1,2,586,2
1.0912999614,0.252275158568,0.0663790645515,0.259592025978,0.384,0.45,0,0,2,587,2
1.06955426231,0.325370226726,0.28000433754,0.30666987808,0.422,0.45,1,0,-1,588,2
0.0635089230926,0.231106762706,1.07765466906,0.186668682866,0.384,0.45,2,2,2,589,2
0.0823105303873,1.03566826468,0.282228903121,0.245689874536,0.365,0.45,1,1,2,590,2
0.178800414301,0.123253156701,0.258539819672,1.00498448501,0.349,0.45,3,3,2,591,2
0.121497251064,0.266583757841,1.13692806861,0.3760208747,0.369,0.45,2,2,2,592,2
1.03756254221,0.348393183371,0.112357671201,0.271411617772,0.423,0.45,0,0,2,593,2
0.113760968996,0.261778008276,1.09583538886,0.335572897855,0.405,0.45,2,2,2,594,2
0.439042189102,0.167520091648,0.107130592378,1.06099445637,0.439,0.45,3,3,2,595,2
1.08672197116,0.185497662532,0.0235355129415,0.248026597826,0.413,0.45,0,0,2,596,2
1.09782983427,0.218279519441,0.0877091149917,0.346686464251,0.387,0.45,1,0,-1,597,2
1.14653716493,0.0949810147153,0.282513198887,0.275385225776,0.444,0.45,0,0,2,598,2
0.211661661499,0.0613101855612,0.418296125673,1.09452634172,0.437,0.45,3,3,2,599,2
0.347921611477,1.03513819127,0.17035430652,0.310336604005,0.37,0.45,1,1,2,600,2
0.183630130061,0.162311478907,1.05518114934,0.358956819841,0.427,0.45,2,2,2,601,2
0.292219804773,1.0511822098,0.23194578026,0.213875001178,0.416,0.45,1,1,2,602,2
1.20419899313,0.176221932993,0.140225813107,0.351664978779,0.431,0.45,0,0,2,603,2
0.117284254005,0.210647850278,1.00563154474,0.2903050015,0.423,0.45,2,2,2,604,2
0.402483459843,0.186344592374,0.152194013495,1.01833477072,0.422,0.45,3,3,2,605,2
0.250581723753,0.273907789735,1.05853266438,0.399790830288,0.406,0.45,2,2,2,606,2
1.01921825951,0.255910683325,0.0526967475775,0.18729682924,0.451,0.45,0,0,1,607,2
0.272308220769,0.211113958133,0.219677460735,1.05313444799,0.429,0.45,3,3,2,608,2
1.00986657608,0.266354876881,0.0469079961517,0.222974156668,0.444,0.45,0,0,2,609,2
0.209039336928,1.0311619923,0.22448542363,0.239551587191,0.488,0.45,1,1,1,610,2
0.323071199665,0.108134036439,0.207711517082,1.01701228759,0.436,0.45,3,3,2,611,2
0.541321871039,1.02872231417,0.107849157219,0.29123061498,0.359,0.45,1,1,2,612,2
0.246397049213,0.303275691191,1.07075522612,0.421004474971,0.362,0.45,2,2,2,613,2
0.35740852733,1.05784397437,0.195210261681,0.196549110109,0.293,0.45,1,1,2,614,2
1.1196237342,0.354241234,0.0887431828342,0.169311086151,0.33,0.45,0,0,2,615,2
0.109431442592,0.280571976592,1.08244271235,0.233048918817,0.31,0.45,2,2,2,616,2
0.510423952988,0.274003032889,0.251236852683,1.09827427014,0.427,0.45,3,3,2,617,2
0.298423514271,0.18022815166,1.01658603397,0.332409958237,0.418,0.45,2,2,2,618,2
1.06835072258,0.296329304983,0.0479447916158,0.262877223565,0.422,0.45,0,0,2,619,2
0.0675439415981,0.0356808525495,0.976182828495,1.02650065953,0.445,0.45,3,3,2,620,2
0.379413200714,1.07691818179,0.0901211500058,0.155701163285,0.434,0.45,1,1,2,621,2
0.268482630673,0.0550134867464,0.176435958379,1.16294264066,0.397,0.45,3,3,2,622,2
1.06954099772,0.230480417517,0.133338917823,0.413024212096,0.345,0.45,0,0,2,623,2
0.152863714439,1.00100049073,0.351380305481,0.239745811564,0.342,0.45,1,1,2,624,2
0.119926121198,0.120564200718,1.00101842594,0.266140978791,0.317,0.45,2,2,2,625,2
0.450561222856,1.20326623976,0.254899393159,0.202826247538,0.345,0.45,1,1,2,626,2
0.0637818971274,0.207207372304,1.08679585491,0.361433775524,0.315,0.45,2,2,2,627,2
0.106220553781,0.0702741868883,0.848728936398,1.06894833591,0.418,0.45,3,3,2,628,2
1.01263397229,0.189922555648,0.0659101898009,0.261891665203,0.369,0.45,0,0,2,629,2
0.379084947581,0.0846141812176,0.206340459523,1.04180872198,0.459,0.45,3,3,1,630,2
0.199531615708,0.0671786143626,1.01614849279,0.304323176779,0.414,0.45,2,2,2,631,2
1.08183037034,0.0397565489717,0.0323924272651,0.340788058199,0.437,0.45,0,0,2,632,2
0.105650845028,1.13984728163,0.0708358280895,0.0891632587782,0.422,0.45,1,1,2,633,2
0.237818730061,0.0391016524929,0.126416608935,1.09366528678,0.371,0.45,3,3,2,634,2
0.265622482898,1.11474222024,0.301072695903,0.313122580118,0.367,0.45,1,1,2,635,2
1.14332140351,0.223831301469,0.0968308400344,0.298373438515,0.408,0.45,0,0,2,636,2
0.239423676885,0.290295615857,1.01746881967,0.265227270256,0.383,0.45,2,2,2,637,2
0.284291903232,1.08279497653,0.0894666769024,0.155360163853,0.277,0.45,1,1,2,638,2
1.03316565058,0.247718231381,0.0601170322814,0.272859952861,0.29,0.45,0,0,2,639,2
0.133647057792,0.371452651147,1.06434778973,0.251465177823,0.31,0.45,2,2,2,640,2
0.349433000229,0.226922109465,0.163349305374,1.11700771235,0.409,0.45,3,3,2,641,2
1.04394712769,0.319765863938,0.074381346705,0.312647517392,0.4,0.45,0,0,2,642,2
0.193522455332,0.170431400562,0.74618140895,1.02041340946,0.447,0.45,3,3,2,643,2
0.191883988303,0.183498977438,1.02079376635,0.449152946893,0.457,0.45,2,2,1,644,2
1.11874917998,0.191683258767,0.233994162817,0.162065783384,0.472,0.45,0,0,1,645,2
0.21568885413,1.13719163231,0.891702458598,0.237601903818,0.465,0.45,1,1,1,646,2
0.251760792245,0.010140101515,0.0648396233735,1.09560423757,0.358,0.45,3,3,2,647,2
0.152719239469,1.06689223521,0.138972857594,0.198188020876,0.434,0.45,1,1,2,648,2
0.138336338881,0.422899882593,1.01458285729,0.160519401527,0.405,0.45,2,2,2,649,2
1.07049606187,0.122502662646,0.114238505894,0.306682766805,0.384,0.45,1,0,-1,650,2
0.410707311321,0.1460175594,0.269373301632,1.07674138253,0.498,0.45,3,3,1,651,3
0.391721550654,0.284935316944,1.09034091784,0.204079791908,0.422,0.45,2,2,2,652,3
1.03149776183,0.34014867563,0.105826394155,0.168239294012,0.412,0.45,0,0,2,653,3
0.171003210061,1.20524092728,0.281383669117,-0.00676220993329,0.442,0.45,1,1,2,654,3
0.251621108755,0.297563633666,1.05379438261,0.258689932418,0.411,0.45,2,2,2,655,3
0.508570761636,1.00410863756,0.273116402788,0.195871413115,0.406,0.45,1,1,2,656,3
1.18414534782,0.247760813605,0.485028866147,0.286916802434,0.424,0.45,0,0,2,657,3
0.0989079493147,0.315127012983,1.11880661264,0.194762502255,0.376,0.45,2,2,2,658,3
0.119096092707,0.0939996730515,1.00992036405,1.01882480042,0.461,0.45,3,3,1,659,3
0.730963197717,1.0241507344,0.207761427634,0.0820460663855,0.416,0.45,1,1,2,660,3
0.373520852703,0.202725416149,0.239674905039,1.01970064954,0.352,0.45,3,3,2,661,3
1.10721087766,0.596928347346,0.0758686502417,0.0548496736023,0.356,0.45,0,0,2,662,3
0.186492279502,0.264038322589,1.10826539169,0.101239939129,0.363,0.45,3,2,-1,663,3
0.486455637546,1.01390678535,0.236899586699,0.0485638907524,0.409,0.45,1,1,2,664,3
1.13706745536,0.19073177051,0.156956397295,0.128499493805,0.369,0.45,0,0,2,665,3
0.260426977509,1.05464782751,0.371685585442,0.225660711178,0.435,0.45,2,1,-1,666,3
0.29448911714,1.08019101702,0.388795018516,0.13185150585,0.487,0.45,1,1,1,667,3
0.0810022497868,0.042370917134,1.02997814535,0.202734808143,0.396,0.45,2,2,2,668,3
1.01086937512,0.144449149056,0.204166236155,0.129535837432,0.413,0.45,0,0,2,669,3
0.294041572174,1.15719495926,0.0832991702746,0.153398231034,0.458,0.45,1,1,1,670,3
0.317754286776,0.0390029847847,0.145077242081,1.02684183711,0.434,0.45,3,3,2,671,3
1.0719899262,0.0799203744956,0.0298426170038,0.106786257276,0.384,0.45,0,0,2,672,3
0.195640587401,0.110743640558,0.101297121832,1.05305867729,0.324,0.45,3,3,2,673,3
0.229614790023,0.155496034252,1.08030293915,0.132391775496,0.351,0.45,2,2,2,674,3
0.252020831741,0.0945031727914,0.0457994677658,1.1595384113,0.425,0.45,3,3,2,675,3
1.24658782788,0.111409647925,0.0285931548965,0.0831963209003,0.336,0.45,0,0,2,676,3
0.280694908864,1.09667688335,0.170492328897,0.139111294307,0.455,0.45,1,1,1,677,3
0.11819035062,0.0749063208562,1.00751845059,0.121787891048,0.392,0.45,2,2,2,678,3
1.12281756103,0.124552940162,0.0391242031253,0.230837138284,0.392,0.45,0,0,2,679,3
0.0947044559045,0.0804718408401,1.05162243655,0.160778092956,0.459,0.45,2,2,1,680,3
0.298595138703,1.1401441411,0.0566714041928,0.14903014476,0.371,0.45,1,1,2,681,3
0.179173739395,0.0512190759272,0.257700891658,1.10822327582,0.394,0.45,3,3,2,682,3
0.315800682166,0.112904706368,0.383125489369,1.12112719676,0.476,0.45,2,3,-1,683,3
0.11937510048,0.0471627945672,0.305185326243,1.0971881777,0.661,0.45,3,3,1,684,3
0.176094846368,1.10718378369,0.0809005094395,-0.0509934289108,0.447,0.45,1,1,2,685,3
1.03787214251,0.304987049159,0.0913578902996,0.0263718140666,0.29,0.45,0,0,2,686,3
0.246349797043,0.246620212275,0.440247144678,1.09468236145,0.361,0.45,3,3,2,687,3
1.13735788038,0.613805597341,0.145935751043,-0.0243603119305,0.441,0.45,0,0,2,688,3
0.262870497909,1.03163164636,0.205656644341,0.235105129205,0.445,0.45,1,1,2,689,3
0.0899857121281,0.089980622566,1.12428322774,0.197726483169,0.325,0.45,2,2,2,690,3
1.23282858481,0.138944019976,0.14405837058,0.263494331649,0.384,0.45,0,0,2,691,3
0.182602859899,1.05080278115,0.218338403648,0.268597416979,0.392,0.45,2,1,-1,692,3
0.203667596184,1.00143662331,0.205235648212,0.094758186255,0.398,0.45,1,1,2,693,3
1.16935574502,0.182764240189,0.167984141554,0.0505266665348,0.39,0.45,0,0,2,694,3
0.260496539535,0.041307599384,0.522431339137,1.14518722551,0.478,0.45,3,3,1,695,3
0.127231625899,0.03348228173,1.03006534565,0.0718334834284,0.402,0.45,2,2,2,696,3
0.171646763489,0.108361716772,0.518040627434,1.07630842721,0.442,0.45,3,3,2,697,3
0.16440080296,1.0925726559,0.405386892397,0.0240645086794,0.479,0.45,1,1,1,698,3
0.222479570335,0.0797486568794,0.200132316064,1.03967989595,0.43,0.45,3,3,2,699,3
0.379645736965,1.06876540033,0.158281405959,0.0566049155068,0.316,0.45,1,1,2,700,3
0.072601001997,0.112881997712,1.08655934891,0.155642189836,0.325,0.45,2,2,2,701,3
1.05207203017,0.838203901467,0.122905037935,0.0789331253413,0.39,0.45,0,0,2,702,3
1.13701118481,0.0666012153382,0.160242915133,0.144728550389,0.439,0.45,1,0,-1,703,3
1.13290400405,0.236006106129,0.108650902406,0.0900321972936,0.564,0.45,0,0,1,704,3
0.0829119836033,0.152822478203,1.0196649252,0.104537743659,0.414,0.45,2,2,2,705,3
0.259129445583,1.16066728775,0.170526199103,0.125650126029,0.443,0.45,1,1,2,706,3
0.298922082701,-0.00759495634556,0.134918008745,1.02311321044,0.444,0.45,3,3,2,707,3
1.07886981991,0.183005867196,0.0435716121974,0.0357377789016,0.399,0.45,0,0,2,708,3
0.290862245854,0.028217515941,0.115568578329,1.1575661089,0.408,0.45,3,3,2,709,3
0.153298415674,0.0711703650466,1.01181076308,0.0423980965138,0.456,0.45,2,2,1,710,3
0.319421208845,0.0492406204196,0.191956043183,1.11251231614,0.478,0.45,3,3,1,711,3
1.06729966518,0.119958918995,0.120326002795,0.0489128196703,0.428,0.45,0,0,2,712,3
0.409937588474,1.02516915864,0.0761963408629,0.0310891098034,0.411,0.45,1,1,2,713,3
0.280180634835,0.158921255093,1.18074561712,0.0554617126673,0.362,0.45,2,2,2,714,3
1.20584767356,0.169724131448,0.151244071269,0.212474165137,0.415,0.45,0,0,2,715,3
0.136259379324,0.0553613070734,1.11185093038,0.204952341184,0.415,0.45,2,2,2,716,3
0.332698140535,1.10254609236,0.120557008729,0.134482589421,0.39,0.45,1,1,2,717,3
1.17716700752,0.178507036285,0.122894402919,0.118217978378,0.426,0.45,0,0,2,718,3
0.291895404521,0.124430215061,0.183349337443,1.14624254025,0.429,0.45,3,3,2,719,3
0.424973815715,1.05823342575,0.833802536965,0.164422546722,0.5,0.45,1,1,1,720,3
0.302273295797,0.161410918031,0.337872907255,1.11507195961,0.516,0.45,3,3,1,721,3
0.1428259309,0.274581158935,1.08759223208,0.139066871204,0.463,0.45,2,2,1,722,3
0.251228140212,0.0476282834518,0.398400094643,1.01623631809,0.509,0.45,3,3,1,723,3
0.317863323721,1.03500747396,0.163309687641,0.0148762336804,0.414,0.45,1,1,2,724,3
1.22283684734,0.246010245361,0.115219377214,0.108640988529,0.424,0.45,0,0,2,725,3
0.17702966919,0.16360666422,1.04295138948,0.0670448785235,0.4,0.45,2,2,2,726,3
1.01114937671,0.0826255891436,0.0810884403781,0.129141932578,0.379,0.45,0,0,2,727,3
0.377204586261,1.0644250962,0.125163716933,0.0676256364115,0.424,0.45,1,1,2,728,3
0.0573697076193,0.0485688548462,1.15286234193,0.1317153241,0.376,0.45,2,2,2,729,3
0.32499388772,0.00277524858408,0.208193211462,1.08973726493,0.413,0.45,3,3,2,730,3
0.108967971917,0.143116401914,1.06865177769,0.148404432911,0.475,0.45,2,2,1,731,3
0.581715482395,1.10599740981,0.174332374829,0.134389554375,0.394,0.45,1,1,2,732,3
0.218317952008,0.00520885768333,0.372883152468,1.12220708943,0.42,0.45,3,3,2,733,3
1.27094005671,0.252974941652,0.114920426566,0.0944020575584,0.423,0.45,0,0,2,734,3
0.285574660696,0.0610822709442,0.129021693453,1.23748737168,0.351,0.45,3,3,2,735,3
0.205319951697,1.00790062278,0.539644815368,-0.0803260695575,0.422,0.45,1,1,2,736,3
0.149664053781,0.159550274184,1.04055058819,0.127675544204,0.522,0.45,2,2,1,737,3
1.0331081327,0.164307369094,0.0256652110246,0.0457061684144,0.425,0.45,0,0,2,738,3
0.34398151489,1.12680121021,0.259861437236,-0.0290684628729,0.463,0.45,1,1,1,739,3
1.13527121551,0.245042742076,0.0688475541683,0.0786471832551,0.479,0.45,0,0,1,740,3
0.214405222131,0.208359516526,1.03259267052,0.124041361183,0.392,0.45,2,2,2,741,3
0.695352225145,1.15790491045,0.0628247213331,0.0262331947765,0.385,0.45,1,1,2,742,3
0.146526181957,-9.67827450689e-05,0.323929355237,1.03056364745,0.443,0.45,3,3,2,743,3
0.233986203546,0.158853954129,1.06527358925,0.347430697925,0.441,0.45,2,2,2,744,3
0.148778882561,0.0743748621339,0.397270773619,1.05179063205,0.484,0.45,3,3,1,745,3
1.01550661516,0.176525505852,0.0162093167583,-0.0118949149036,0.425,0.45,0,0,2,746,3
0.240095126194,0.0634592601409,1.02022295417,1.10420957208,0.462,0.45,3,3,1,747,3
1.17367175562,0.24046471877,0.00970010976588,0.00263237767913,0.495,0.45,0,0,1,748,3
0.282619386665,0.0358812380321,1.01418837002,0.125654736597,0.426,0.45,2,2,2,749,3
0.2819374215,1.05376171215,0.275305585715,-0.0460584985635,0.444,0.45,1,1,2,750,3
1.15455845829,0.132611286069,0.0270005674605,0.000672944259803,0.428,0.45,0,0,2,751,3
0.227327799839,1.13879958215,0.0665904499367,0.0266219444862,0.427,0.45,1,1,2,752,3
0.224370582181,0.0604443420719,1.07405469172,0.176586992888,0.362,0.45,2,2,2,753,3
0.241001827623,0.0525589020202,0.185290346827,1.03019318825,0.31,0.45,3,3,2,754,3
0.313516604238,1.18078402665,0.114122733439,0.0854145365245,0.303,0.45,2,1,-1,755,3
1.26008563058,0.162037803023,0.176534560126,0.182268414672,0.439,0.45,0,0,2,756,3
1.04151657344,0.133687162363,0.162956681869,0.211478814402,0.459,0.45,3,0,-1,757,3
0.236902633053,0.709888363675,0.29387825446,0.204230674958,0.7,0.45,1,-1,0,759,3
0.206638658069,1.05626019881,0.299620797605,0.190789969092,0.0200000000004,0.45,3,1,-1,759,3
0.23731953916,1.16003365855,0.504539721108,0.75621725344,0.387,0.45,2,1,-1,760,3
0.167566105001,1.05881636356,0.234332939788,0.0243397296357,0.418,0.45,0,1,-1,761,3
0.238285056566,1.18054010496,0.799610607655,0.17626192881,0.374,0.45,1,1,2,762,3
0.0593400928682,0.490594306447,1.03729227054,0.280461155081,0.443,0.45,2,2,2,763,3
0.114254012468,1.0073916892,0.316858549065,0.0908963721837,0.428,0.45,1,1,2,764,3
1.08778742583,0.4929012736,0.210765309847,0.134961376037,0.447,0.45,0,0,2,765,3
0.212570736747,0.196434886178,0.7141535938,1.01128068522,0.448,0.45,3,3,2,766,3
0.326090244485,1.06139200991,0.276364506036,0.0542352072765,0.359,0.45,1,1,2,767,3
0.216359287195,0.250849679704,1.12521929529,0.118916978651,0.322,0.45,3,2,-1,768,3
1.0147169068,0.298214245518,0.204838153063,0.133337921023,0.363,0.45,0,0,2,769,3
0.123466310107,0.0444353891241,1.04810930571,0.387348503319,0.448,0.45,2,2,2,770,3
0.381750413685,0.0324382589278,0.221050214869,1.00533705544,0.393,0.45,3,3,2,771,3
0.19255130519,0.3983673385,1.03396899839,0.166613211991,0.445,0.45,2,2,2,772,3
0.239896246117,1.10904939703,0.49319537248,0.251887519184,0.37,0.45,1,1,2,773,3
0.912099914265,1.00391661499,0.372185258147,0.271240418951,0.352,0.45,0,1,-1,774,3
0.155093222472,0.274545747736,1.00117172499,0.15285783686,0.222,0.45,2,2,2,775,3
1.02816946511,0.268873453784,0.31344366374,0.173392354844,0.368,0.45,0,0,2,776,3
0.197488556078,1.23198361992,0.405954651707,0.129002486693,0.4,0.45,1,1,2,777,3
0.375883288475,0.380077415584,0.485865004237,1.11601303489,0.361,0.45,3,3,2,778,3
0.420882422427,1.03713853993,0.429483266334,0.0527889931198,0.349,0.45,1,1,2,779,3
0.240305055999,0.276552335104,1.02034263439,0.245977931008,0.324,0.45,2,2,2,780,3
0.186551591911,0.0489903028631,0.982295274151,1.12619648113,0.445,0.45,3,3,2,781,3
1.20039435735,0.211916017474,0.124076693649,0.112557092822,0.318,0.45,0,0,2,782,3
0.224668519122,0.149816884853,0.296897943547,1.11407696481,0.369,0.45,3,3,2,783,3
0.260533072462,0.227080791434,1.12457432462,0.0842361960723,0.356,0.45,2,2,2,784,3
0.377567037555,1.09559269778,0.131254576547,0.128963997213,0.336,0.45,1,1,2,785,3
1.29593261393,0.215432195228,0.126212570608,0.17930880783,0.356,0.45,0,0,2,786,3
0.165522618238,1.0754236738,0.796395249284,0.182523662257,0.419,0.45,2,1,-1,787,3
1.17806752166,0.19898086106,0.190932257034,0.19030973757,0.409,0.45,0,0,2,788,3
0.238550728914,1.06461624185,0.233455180558,0.184872813952,0.425,0.45,1,1,2,789,3
0.187644923488,0.100744387624,1.05375990902,0.179474914425,0.34,0.45,2,2,2,790,3
0.301709285893,0.0777327412825,0.298302346307,1.00083546741,0.422,0.45,3,3,2,791,3
0.239962414744,1.11443429478,0.212044389777,0.160417301561,0.429,0.45,1,1,2,792,3
0.130939437186,0.00979807711574,0.422428462388,1.10388675385,0.386,0.45,3,3,2,793,3
1.14959979026,0.0840890979165,0.120059124826,0.145798818188,0.377,0.45,0,0,2,794,3
0.150338885801,0.0567596436519,0.246390983961,1.09731040541,0.36,0.45,3,3,2,795,3
1.15175898027,0.275400995179,0.0743881327107,0.0372960092136,0.374,0.45,0,0,2,796,3
0.0380210955146,0.02370404491,1.02794907552,0.124932681639,0.327,0.45,2,2,2,797,3
1.11894340468,0.0593798345565,0.171785150462,0.134409261924,0.332,0.45,1,0,-1,798,3
1.04263287367,0.0901868672337,0.0490314783144,0.164219844401,0.389,0.45,0,0,2,799,3
0.180799094734,1.01469778864,0.175753411817,0.0821412086215,0.411,0.45,1,1,2,800,3
0.312459234891,0.14870859496,1.06210417161,0.130954524008,0.327,0.45,2,2,2,801,3
1.00579957907,0.894534497943,0.0777753706515,0.158538833837,0.432,0.45,0,0,2,802,3
0.325612220414,0.014997599666,0.808419624361,1.07044827832,0.441,0.45,3,3,2,803,3
0.146182235587,0.0328688158602,1.10117159264,0.121588899305,0.423,0.45,2,2,2,804,3
0.832055949491,0.0512338066808,0.112877017276,1.06084187472,0.46,0.45,3,3,1,805,3
0.187937400984,1.07695820699,0.115417452534,0.0500849225718,0.409,0.45,1,1,2,806,3
0.246123440066,0.0958969717759,0.310055435709,1.03477783009,0.446,0.45,3,3,2,807,3
1.17484461696,0.107753452969,0.103839263227,0.168153049089,0.46,0.45,0,0,1,808,3
0.210844456399,0.0405127833462,1.11532027851,0.15065510702,0.374,0.45,2,2,2,809,3
0.342791922821,1.11617694517,0.168507071587,0.0917219788356,0.423,0.45,1,1,2,810,3
0.215081381474,0.17409697729,1.02191811,0.168362990499,0.386,0.45,2,2,2,811,3
1.07494487455,0.228724919588,0.0899159969592,0.0550671537424,0.394,0.45,0,0,2,812,3
0.231798125176,1.13285412665,0.125288520467,0.0511856258662,0.44,0.45,1,1,2,813,3
0.156672143365,0.026817534867,0.332178137461,1.09089150982,0.406,0.45,3,3,2,814,3
0.269780699347,1.02180411386,0.133485008075,0.00433371488236,0.439,0.45,1,1,2,815,3
1.11863390757,0.199442338018,0.144307510409,0.221606482561,0.384,0.45,0,0,2,816,3
0.0453378214834,0.0555523367407,0.902327727723,1.00011230336,0.433,0.45,3,3,2,817,3
0.20150424107,0.0372051913874,1.1257666037,0.10173709704,0.434,0.45,2,2,2,818,3
0.346293382922,0.0721534819478,0.238694183115,1.08972731334,0.464,0.45,3,3,1,819,3
0.367986870786,1.00115841496,0.170342429742,0.0615414987683,0.394,0.45,1,1,2,820,3
1.11230997654,0.0549399822662,0.0438146970319,0.117228852962,0.34,0.45,0,0,2,821,3
0.103632833098,0.0856648894198,1.04666301973,0.129197238502,0.339,0.45,2,2,2,822,3
0.324784457558,1.09271221184,0.353379749883,-0.0362176784935,0.349,0.45,1,1,2,823,3
0.124082513743,0.0794474699874,1.00969493325,0.120851894161,0.413,0.45,2,2,2,824,3
1.08243794567,0.113140482348,0.126898993519,0.162229548943,0.411,0.45,0,0,2,825,3
1.01640460586,0.110253324191,0.216559425675,0.228395176922,0.421,0.45,1,0,-1,826,3
0.25432560182,0.0180075145322,0.339771484976,1.05148503925,0.374,0.45,3,3,2,827,3
1.06458720411,0.0328396744277,0.0799597314706,0.142354127297,0.26,0.45,0,0,2,828,3
0.305460621165,0.372657544647,1.08427530589,0.787613753238,0.354,0.45,3,2,-1,829,3
0.160783239066,0.612108670373,1.04117005671,0.328465733115,0.394,0.45,2,2,2,830,3
0.14320593097,0.0734557600161,0.325437878775,1.02171396442,0.436,0.45,3,3,2,831,3
0.136735027612,0.22550874886,1.09312266285,0.121454876965,0.374,0.45,2,2,2,832,3
1.02914320533,0.166148040672,0.113571233294,0.114864014224,0.423,0.45,0,0,2,833,3
0.115552025089,1.1204057812,0.220327792176,0.0601278820278,0.452,0.45,1,1,1,834,3
1.06939738006,0.211865955773,0.10861470114,0.239975131255,0.461,0.45,0,0,1,835,3
0.26227935451,0.052502374821,1.09740946447,0.222931896941,0.401,0.45,2,2,2,836,3
0.136224693099,1.03386022377,0.120524819754,0.167153936285,0.453,0.45,1,1,1,837,3
0.203841471365,0.0400488509757,1.05010248332,0.269061570486,0.397,0.45,2,2,2,838,3
0.193632185372,0.0454407979661,0.193783560653,1.06155857164,0.422,0.45,3,3,2,839,3
1.24198188206,0.0342458713757,0.0439150089052,0.0870517704029,0.317,0.45,0,0,2,840,3
0.0554830038959,0.0242488993707,0.812892679468,1.01345629398,0.395,0.45,3,3,2,841,3
1.25245575426,0.0170435216035,0.00653480627948,0.0461493098152,0.34,0.45,1,0,-1,842,3
0.0848818165926,0.040796625577,0.172176561789,1.02199739504,0.455,0.45,3,3,1,843,3
0.256342446087,1.07497686959,0.132002632059,0.0695361402558,0.431,0.45,1,1,2,844,3
0.0724203784655,0.0810617113677,1.00751066403,0.484970202015,0.395,0.45,2,2,2,845,3
1.00474067756,0.958240037528,0.228193645617,0.332619106252,0.403,0.45,0,0,2,846,3
0.320118749646,1.02878885049,0.269939879583,0.0635865818977,0.449,0.45,1,1,2,847,3
1.0594112065,0.132494905012,0.103770728227,0.157070721024,0.402,0.45,0,0,2,848,3
0.170511639979,0.0738504002592,1.13655398587,0.209010959325,0.37,0.45,2,2,2,849,3
0.0734613631863,0.0515999371397,0.203368477985,1.00900267478,0.357,0.45,3,3,2,850,3
0.342411727025,0.0331020057283,1.09704878675,0.155950470836,0.386,0.45,2,2,2,851,3
0.285373745541,1.06443216357,0.084683184094,0.0688210294232,0.335,0.45,1,1,2,852,3
0.110658222866,0.0311801406912,1.01909380596,0.423738317565,0.38,0.45,3,2,-1,853,3
1.21374672669,0.0243695598097,0.0163949784671,0.116161659942,0.423,0.45,0,0,2,854,3
0.186976447415,0.0300280500583,0.0365269400061,1.10829400144,0.342,0.45,3,3,2,855,3
0.197062949017,1.00982485609,0.0793696713343,0.0237450741535,0.327,0.45,1,1,2,856,3
1.07827024036,0.0837865641012,0.206005248251,0.217404997992,0.424,0.45,0,0,2,857,3
0.0637822398021,0.265240050072,1.0928639671,0.416442351133,0.471,0.45,2,2,1,858,3
1.29952472211,0.116782226184,0.118261176331,0.243481731002,0.435,0.45,0,0,2,859,3
0.177520197968,1.06116017742,0.34272730773,0.0540713502797,0.478,0.45,1,1,1,860,3
0.239227126986,0.0889308206246,1.01882915535,0.245256729727,0.346,0.45,2,2,2,861,3
0.248618177352,1.10088507918,0.183470309647,0.384224201156,0.407,0.45,1,1,2,862,3
0.176346972992,0.0468999741945,0.774203171522,1.0532558,0.465,0.45,3,3,1,863,3
0.136316402033,0.0927560613487,1.05381705774,0.205011749598,0.477,0.45,2,2,1,864,3
0.157745991795,0.0669334628084,0.464408913525,1.08327544205,0.471,0.45,3,3,1,865,3
1.14500468771,0.0420267012577,0.0346352408072,0.118595740625,0.365,0.45,0,0,2,866,3
0.0817778795895,0.039724693244,0.380778161647,1.08633309113,0.415,0.45,3,3,2,867,3
1.09932270598,0.227886943747,0.157904543578,0.143423914722,0.433,0.45,0,0,2,868,4
0.161441983509,0.149162935932,1.15232918635,0.303465349325,0.422,0.45,2,2,2,869,4
0.26766483333,0.055287449813,0.140891867664,1.04885663975,0.38,0.45,3,3,2,870,4
1.01118503801,0.189903153748,0.11337444672,0.0577184872906,0.292,0.45,1,0,-1,871,4
0.0632258003069,0.0306531439199,1.01971904645,0.414001894685,0.359,0.45,3,2,-1,872,4
0.319241983411,0.221773648652,1.05302451857,0.0737616620633,0.359,0.45,2,2,2,873,4
0.361491812748,1.011444539,0.113054469753,0.0283218116213,0.422,0.45,1,1,2,874,4
1.03768161485,0.15384100013,0.0924422859786,0.106381279375,0.281,0.45,0,0,2,875,4
0.35632248856,0.312712889841,1.02256020037,0.15196298219,0.338,0.45,1,2,-1,876,4
0.103874949809,0.890513702955,1.04240694229,0.274899301953,0.406,0.45,2,2,2,877,4
1.02739027919,0.1828137101,0.169043585042,0.201048446027,0.4,0.45,0,0,2,878,4
0.180395263052,0.0600770752099,0.213053972813,1.0040375395,0.354,0.45,3,3,2,879,4
0.224638420251,1.01007950269,0.182400976276,-0.0108895727341,0.331,0.45,0,1,-1,880,4
0.150245874077,0.0327404168585,0.146694507772,1.01522998333,0.424,0.45,3,3,2,881,4
0.388722494289,1.05923109396,0.215910661068,0.11563956908,0.486,0.45,1,1,1,882,4
0.145448882754,0.0199901579855,1.02878610786,0.185011321215,0.404,0.45,2,2,2,883,4
1.06909411977,0.137405467169,0.140704692375,0.157091988943,0.312,0.45,1,0,-1,884,4
0.110770858705,0.0014011600669,0.424553355524,1.04657869402,0.37,0.45,3,3,2,885,4
0.207804269588,0.0189044106976,1.03712609466,0.0945538035734,0.378,0.45,2,2,2,886,4
0.113547287493,0.0519068401911,0.577550681464,1.0772029835,0.395,0.45,3,3,2,887,4
1.12334302361,0.289955219457,0.190950924267,0.0970947204602,0.403,0.45,0,0,2,888,4
0.0697123397421,0.0496356405451,1.0341948372,0.202748434694,0.348,0.45,2,2,2,889,4
1.07977599662,0.0528905455294,0.227515166949,0.221367082514,0.367,0.45,0,0,2,890,4
0.0727502270525,1.09349934389,0.129346589231,0.104109484033,0.429,0.45,1,1,2,891,4
1.06286229155,0.0563795605885,0.263014329345,0.166583657351,0.425,0.45,0,0,2,892,4
0.112051019078,0.0375511596182,1.09214850357,0.182372159754,0.373,0.45,2,2,2,893,4
0.444372879367,1.20882844879,0.822884198758,0.0833812858206,0.455,0.45,1,1,1,894,4
0.115001201844,0.0358828075977,0.433452407841,1.11814897301,0.514,0.45,3,3,1,895,4
0.46104283538,1.06980161576,0.161341332214,0.0291103567359,0.438,0.45,1,1,2,896,4
0.0819224379313,0.0378639452041,1.06049709735,0.159941001387,0.424,0.45,2,2,2,897,4
0.0623115964618,0.0470134032754,0.420618609149,1.07445894421,0.387,0.45,3,3,2,898,4
0.122550002264,0.316893718863,1.14104926234,0.116365456441,0.419,0.45,2,2,2,899,4
1.21298039566,0.520490855658,0.307459077843,0.103066303645,0.452,0.45,0,0,1,900,4
0.219054130372,0.02015123452,0.187963831957,1.06017269825,0.388000000001,0.45,3,3,2,901,4
1.09298373098,0.157092312122,0.159706817452,0.186026737129,0.354000000001,0.45,0,0,2,902,4
0.402294149005,1.2420992648,0.208948140216,0.0276183110855,0.403000000001,0.45,1,1,2,903,4
1.07208001366,0.306185797258,0.146617033091,0.0618161766988,0.477000000001,0.45,0,0,1,904,4
1.01533290519,0.102407176422,0.0696411531606,0.0703996293703,0.440000000001,0.45,1,0,-1,905,4
0.0759217657151,0.0195306978413,0.404153698029,1.16840072086,0.413000000001,0.45,3,3,2,906,4
0.133293452399,0.77395639073,1.08353824921,0.186755087631,0.440000000001,0.45,2,2,2,907,4
0.0910744274062,0.0542399724472,0.551895124003,1.07886888415,0.462000000001,0.45,3,3,1,908,4
0.364940965707,1.02863092976,0.189551570149,0.0401124526719,0.454000000001,0.45,1,1,1,909,4
0.0780476008587,0.694315388975,1.13850220808,0.0982241929267,0.425000000001,0.45,2,2,2,910,4
0.282038247186,1.09989751219,0.247871897233,0.186438669957,0.360000000001,0.45,1,1,2,911,4
1.16151060569,0.121984079387,0.167669511141,0.13439236231,0.370000000001,0.45,0,0,2,912,4
0.242350860576,0.0354236296083,0.165611710741,1.15003878876,0.348000000001,0.45,3,3,2,913,4
1.1515550859,0.250887226441,0.321027265542,0.101195222827,0.415000000001,0.45,0,0,2,914,4
0.0893307929312,0.0645379501207,1.07892754366,0.0396058456756,0.380000000001,0.45,2,2,2,915,4
1.09718132068,0.329892762177,0.223640805394,0.0851330304019,0.418000000001,0.45,0,0,2,916,4
0.0653668139649,0.063139532062,1.03410881149,0.224520247806,0.391000000001,0.45,2,2,2,917,4
0.152250280464,0.0284955805833,0.366096694786,1.01293117016,0.456000000001,0.45,3,3,1,918,4
0.175952017254,1.29232486656,0.219358097044,0.065419751093,0.453000000001,0.45,1,1,1,919,4
0.0610522870168,0.120122527172,1.0499990917,0.0960188175797,0.448000000001,0.45,2,2,2,920,4
0.119485505214,1.16580823682,0.596897117876,0.147076600565,0.432000000001,0.45,1,1,2,921,4
0.0686327575358,0.0520791815538,0.411315274719,1.01729587884,0.433000000001,0.45,3,3,2,922,4
1.10248818761,0.0840666002631,0.126970127743,0.170635343036,0.378000000001,0.45,0,0,2,923,4
0.3257536795,0.0490160727293,0.314631577881,1.00017417249,0.417000000001,0.45,3,3,2,924,4
0.121418929099,1.02979481587,0.306419882378,0.0611630876982,0.359000000001,0.45,2,1,-1,925,4
0.064023309907,1.01251759975,0.18468203803,0.10624319882,0.391000000001,0.45,0,1,-1,926,4
0.156457645671,1.07291192431,0.260441358983,0.122231723735,0.388000000001,0.45,1,1,2,927,4
1.18114805922,0.098340384695,0.293716612216,0.156938339448,0.409000000001,0.45,0,0,2,928,4
0.036032992906,1.09026238934,0.284975613293,0.133707785196,0.398000000001,0.45,1,1,2,929,4
0.0291819521983,0.0288922690581,0.615128161186,1.02956313636,0.434000000001,0.45,3,3,2,930,4
0.0272637352599,0.0912248490524,1.03748143895,0.216806044156,0.361000000001,0.45,2,2,2,931,4
0.0335026686381,1.14146254769,0.27047445243,0.0783071307572,0.348000000001,0.45,1,1,2,932,4
0.062448811604,0.0929226860973,1.04593786586,0.0533053900187,0.353000000001,0.45,2,2,2,933,4
0.164411459418,0.0688557970163,0.563653758483,1.0041514712,0.428000000001,0.45,3,3,2,934,4
0.245495500142,1.0160261679,0.30559793546,-0.0419340869747,0.411000000001,0.45,1,1,2,935,4
1.10552044681,0.187616827136,0.187504394951,0.0836660408138,0.460000000001,0.45,0,0,1,936,4
0.407466537405,0.279367419497,0.379686617717,1.01555061452,0.548000000001,0.45,3,3,1,937,4
1.11852518806,0.168898225084,0.195840728824,0.196895370436,0.632000000001,0.45,0,0,1,938,4
0.128874816056,0.0933198737453,1.01410973853,0.443010405012,0.428000000001,0.45,2,2,2,939,4
1.03303695278,0.0457920368064,0.108326890677,0.0811299761666,0.372000000001,0.45,0,0,2,940,4
0.178237428975,0.0222021341994,0.600199499841,1.05981423406,0.410000000001,0.45,3,3,2,941,4
0.160483510307,0.0454394688283,1.04984823359,0.0852071638075,0.422000000001,0.45,2,2,2,942,4
0.54466221455,1.09393562966,0.308152820129,0.123804687715,0.444000000001,0.45,1,1,2,943,4
0.150771046857,0.0706301408949,1.06208183177,0.0884445356667,0.424000000001,0.45,2,2,2,944,4
0.17201625371,0.0123188250398,0.482702200264,1.01056526795,0.431000000001,0.45,3,3,2,945,4
1.16260660692,0.632030477438,0.15907857781,-0.0257440075862,0.466000000001,0.45,1,0,-1,946,4
1.06276123586,0.0954048347067,0.0811641274829,0.131805499672,0.407000000001,0.45,0,0,2,947,4
0.0726125056489,0.0483393312151,1.06579237343,0.121482955046,0.449000000001,0.45,2,2,2,948,4
1.14600720995,0.059381538941,0.351534372824,0.25782653879,0.494000000001,0.45,0,0,1,949,4
0.110531560961,0.039189502633,1.00744670019,0.293312919962,0.369000000001,0.45,1,2,-1,950,4
0.0809526593224,0.0356651563495,0.59172284553,1.02823813925,0.431000000001,0.45,3,3,2,951,4
1.08388659509,0.275999494383,0.123502170964,0.046544736282,0.442000000001,0.45,0,0,2,952,4
0.119188265754,0.142409350116,1.12107237905,0.428879962722,0.512000000001,0.45,2,2,1,953,4
0.0655070307954,0.0451991491057,0.474438772729,1.0411028498,0.382000000001,0.45,3,3,2,954,4
0.158858493407,1.1197618009,0.316750575976,0.0822819413008,0.330000000001,0.45,1,1,2,955,4
0.0743993052751,0.0204317557083,0.234067053601,1.14146709501,0.363000000001,0.45,3,3,2,956,4
0.0740158865688,1.13074847033,0.292790609249,0.469276959123,0.415000000001,0.45,2,1,-1,957,4
0.277002089819,1.04815606641,0.186779551237,-0.0131130907948,0.465000000001,0.45,1,1,1,958,4
1.00681127421,0.31390191231,0.141526766498,0.0129488619119,0.349000000001,0.45,0,0,2,959,4
0.095655030573,0.0563500495767,0.191719907593,1.03934262086,0.343000000001,0.45,3,3,2,960,4
1.07313591211,0.0187661582614,0.0530379290697,0.0789279208755,0.411000000001,0.45,0,0,2,961,4
0.959921510888,1.15532874364,0.0118992967506,0.0163249429719,0.426000000001,0.45,1,1,2,962,4
0.129332888607,0.0314141298737,1.04101235421,0.170750965762,0.333000000001,0.45,2,2,2,963,4
1.08801689935,0.0865013972102,0.149488166886,0.768376567718,0.444000000001,0.45,0,0,2,964,4
0.04348950974,0.0395642038915,1.04818035355,0.215719690671,0.406000000001,0.45,2,2,2,965,4
0.0762539437084,0.0364767933166,0.361500911955,1.0315415533,0.342000000001,0.45,3,3,2,966,4
0.182350133782,1.04271938114,0.331632776426,0.0154315433153,0.389000000001,0.45,1,1,2,967,4
0.0605277732372,0.0258949204132,1.10812129864,0.25719731852,0.338000000001,0.45,2,2,2,968,4
1.03757103104,0.0744698659293,0.330592720078,0.212998083286,0.352000000001,0.45,1,0,-1,969,4
0.16157515682,0.0333021980467,0.147942687285,1.17056092826,0.368000000001,0.45,3,3,2,970,4
1.16952223066,0.0778496606305,0.120729026308,0.165894299261,0.324000000001,0.45,0,0,2,971,4
0.0622378989831,0.0325826781802,0.772700217366,1.04765586087,0.386000000001,0.45,3,3,2,972,4
0.111638537145,0.0327723574277,1.08315205886,0.073087034941,0.383000000001,0.45,2,2,2,973,4
1.09219580535,0.0425700136618,0.125731633069,0.205090874488,0.362000000001,0.45,0,0,2,974,4
0.0893043194397,0.0299617104182,1.10137747446,0.151356199188,0.436000000001,0.45,1,2,-1,975,4
1.16996956338,0.0311368421088,0.104521338264,0.150194011334,0.518000000001,0.45,0,0,1,976,4
0.0827113920825,0.0288996363801,1.05098068356,0.0410758337849,0.490000000001,0.45,2,2,1,977,4
1.04178703852,0.0309442131275,0.134238052977,0.153564348134,0.444000000001,0.45,1,0,-1,978,4
0.0584596090466,0.0450993559025,0.91054596723,1.12132625786,0.416000000001,0.45,3,3,2,979,4
0.0697627816562,0.0239405478934,1.21239860896,0.306911908469,0.444000000001,0.45,2,2,2,980,4
0.0643810252035,0.0253887221852,0.235140535651,1.20928046083,0.498000000001,0.45,3,3,1,981,4
0.06606513718,1.11850380304,0.202840076513,-0.0416769611906,0.494000000001,0.45,1,1,1,982,4
0.115935876344,1.08717581133,0.433977614381,0.557028637694,0.556000000001,0.45,2,1,-1,983,4
1.09073379447,0.365687402832,0.143067898424,0.0240240383514,0.388000000001,0.45,0,0,2,984,4
0.207772925865,0.0616345174602,0.182970968646,1.03267121439,0.376000000001,0.45,3,3,2,985,4
1.03200417492,0.165778712371,0.122763148841,-0.0442607240039,0.302000000001,0.45,0,0,2,986,4
0.10807499961,1.17619729544,0.313411274517,0.149972142367,0.490000000001,0.45,1,1,1,987,4
1.26289307694,0.178621444648,0.246897500207,0.129082807007,0.483000000001,0.45,0,0,1,988,4
0.139144354267,1.00100388147,0.245509405964,0.195376628026,0.449000000001,0.45,1,1,2,989,4
0.296605639198,0.0900173113534,0.249285180393,1.05035636547,0.497000000001,0.45,3,3,1,990,4
0.173619993008,0.705053053253,1.02310955764,0.0845163168185,0.501000000001,0.45,2,2,1,991,4
0.103307893643,0.0344198162042,0.799363763235,1.13962512494,0.481000000001,0.45,3,3,1,992,4
0.117502537506,1.14099161407,0.218480887053,0.135106696041,0.427000000001,0.45,1,1,2,993,4
0.045610055777,0.0267047435995,1.08489235695,0.112920978974,0.393000000001,0.45,2,2,2,994,4
1.13019777487,0.163806396154,0.148540998284,0.137411390366,0.433000000001,0.45,0,0,2,995,4
0.0977425943075,0.118273489341,1.10835415566,0.178260187364,0.444000000001,0.45,2,2,2,996,4
0.215532493282,1.12079569428,0.166231863145,0.13070707724,0.496000000001,0.45,1,1,1,997,4
1.02011085582,0.284771770087,0.1645024265,0.0844005704921,0.697000000001,0.45,0,0,1,998,4
0.0970068881913,0.0262513456586,0.161849200573,0.635989449729,0.7,0.45,3,-1,0,1000,4
0.208990796087,0.0299664326347,0.186363794088,1.03803852841,0.0290000000006,0.45,0,3,-1,1000,4
0.180756171887,1.11345875877,0.255024485659,0.0776075210467,0.363000000001,0.45,1,1,2,1001,4
0.0745323876436,1.10513543055,0.92506129144,0.290763664898,0.345000000001,0.45,2,1,-1,1002,4
0.0875282360327,0.0406888414339,1.06787404341,0.258989818521,0.400000000001,0.45,3,2,-1,1003,4
0.157819794043,1.04316826642,0.172820581764,0.000421335504096,0.482000000001,0.45,1,1,1,1004,4
0.0537219187373,0.0184751898146,0.487095098755,1.0461115285,0.432000000001,0.45,3,3,2,1005,4
0.0600271292286,0.6963548857,1.01498115521,0.234005816876,0.456000000001,0.45,2,2,1,1006,4
1.0305808541,0.742922760665,0.314009310862,0.0589009288184,0.455000000001,0.45,0,0,1,1007,4
0.230284693907,0.048128034334,0.166441145262,1.14687569965,0.527000000001,0.45,3,3,1,1008,4
1.22525301683,0.0398975223173,0.0571100144546,0.099742245276,0.459000000001,0.45,0,0,1,1009,4
0.0747970870048,0.0554935913403,1.1237254302,0.16164483317,0.437000000001,0.45,2,2,2,1010,4
1.03000654671,0.114935178366,0.132613817489,0.120369992569,0.346000000001,0.45,1,0,-1,1011,4
1.06670308142,0.200110447377,0.152677344209,0.148202876062,0.375000000001,0.45,0,0,2,1012,4
0.0490035927563,0.113818239332,1.05725471427,0.0484624778506,0.329000000001,0.45,2,2,2,1013,4
0.213876278866,0.0203919588787,0.54084718728,1.06435998036,0.455000000001,0.45,3,3,1,1014,4
0.240156201827,1.09477796156,0.227118352072,0.0378524526034,0.371000000001,0.45,1,1,2,1015,4
0.104095405133,0.0178097173135,0.212755607613,1.08211077082,0.361000000001,0.45,3,3,2,1016,4
0.0922953107443,0.0216951994094,1.0264359493,0.119103922221,0.328000000001,0.45,2,2,2,1017,4
0.269486623223,1.19815684927,0.346163950154,-0.00957257908667,0.465000000001,0.45,1,1,1,1018,4
0.0751917652274,0.0848212799605,1.09670230957,0.00949093118179,0.445000000001,0.45,2,2,2,1019,4
1.06857980248,0.360622479429,0.195589461132,0.0602166750687,0.400000000001,0.45,0,0,2,1020,4
0.295063203283,1.00599642709,0.286014215119,0.0748905627674,0.371000000001,0.45,1,1,2,1021,4
1.07344187004,0.120025941683,0.183274556295,0.153284817034,0.382000000001,0.45,0,0,2,1022,4
0.102841704804,0.00710590401259,0.173156436322,0.354622794439,0.7,0.45,3,-1,0,1024,4
0.154108667126,0.0145953350176,0.118858082755,1.17978087925,0.189000000001,0.45,0,3,-1,1024,4
0.151275092675,0.0289143268395,0.15000359137,1.14939331636,0.486000000001,0.45,3,3,1,1025,4
0.116288794144,1.06146774755,0.39583721704,0.231857954006,0.408000000001,0.45,2,1,-1,1026,4
0.346913486713,1.01522137023,0.130923630091,0.0357715799974,0.311000000001,0.45,1,1,2,1027,4
0.131163391838,0.111477484253,1.07275465717,0.0380644915311,0.411000000001,0.45,2,2,2,1028,4
0.0920248603808,0.026634973873,0.510053439083,1.04980814103,0.424000000001,0.45,3,3,2,1029,4
0.450943993028,1.16201975914,0.22730718312,0.10833230711,0.401000000001,0.45,1,1,2,1030,4
1.16398329445,0.0493125581968,0.251272304727,0.140913108967,0.425000000001,0.45,0,0,2,1031,4
0.7813875373,1.31114038099,0.167154377906,0.012925475394,0.456000000001,0.45,1,1,1,1032,4
0.0326094092926,-0.0109278016739,0.548340688265,1.00237322909,0.413000000001,0.45,3,3,2,1033,4
1.25409566705,0.324269680835,0.175389493254,0.0279870271701,0.445000000001,0.45,0,0,2,1034,4
0.0524838539309,0.0962111049001,1.01481323119,0.23598067233,0.360000000001,0.45,2,2,2,1035,4
1.08615447994,0.0519993991711,0.0142675379866,0.0246386494821,0.342000000001,0.45,0,0,2,1036,4
0.252087026125,0.1095371566,0.211895617612,1.06229834821,0.452000000001,0.45,3,3,1,1037,4
0.121486807909,0.065064317754,1.12978014529,0.249505179967,0.446000000001,0.45,2,2,2,1038,4
0.195897017628,1.046199397,0.109933167572,0.0984663134176,0.479000000001,0.45,1,1,1,1039,4
0.0574336360524,0.0101275609169,0.136731272051,1.05126130404,0.397000000001,0.45,3,3,2,1040,4
0.061725834861,1.20270368592,0.265674751856,0.119767568017,0.366000000001,0.45,1,1,2,1041,4
0.062192883334,0.0263316901665,1.07330380283,0.139970061058,0.318000000001,0.45,2,2,2,1042,4
1.22089216592,0.338730103883,0.234320267483,0.112631687138,0.355000000001,0.45,0,0,2,1043,4
0.106680700648,0.212369625284,1.04238459903,0.169417039229,0.311000000001,0.45,2,2,2,1044,4
0.307114988608,0.0210227022788,0.776973146736,1.14210038489,0.448000000001,0.45,3,3,2,1045,4
1.19351911885,0.157068966236,0.0913837761098,0.0947283526081,0.328000000001,0.45,0,0,2,1046,4
0.181359556001,1.00923842095,0.176661853661,0.137790519005,0.424000000001,0.45,1,1,2,1047,4
1.01643307399,0.030656329035,0.0534737068247,0.100818685703,0.687000000001,0.45,0,0,1,1048,4
0.130771175214,0.0397312856101,1.05501775433,0.119051298457,0.527000000001,0.45,2,2,1,1049,4
0.320467268473,0.0106998657885,0.136610527649,1.00430783188,0.435000000001,0.45,3,3,2,1050,4
0.329945370826,1.13839931973,0.182845432315,0.0620672798091,0.415000000001,0.45,1,1,2,1051,4
0.0528645541183,0.210391556445,1.05120180898,0.229141605195,0.411000000001,0.45,2,2,2,1052,4
0.532594698391,1.21517541541,0.429313172442,0.0469933236318,0.427000000001,0.45,1,1,2,1053,4
0.149682930225,0.0218750926942,1.03142022921,0.607572415052,0.415000000001,0.45,3,2,-1,1054,4
1.13237169691,0.0793339912947,0.11054475169,0.0825390027997,0.397000000001,0.45,0,0,2,1055,4
0.547228514885,1.06606250275,0.11415363171,0.126857411553,0.381000000001,0.45,1,1,2,1056,4
1.22808819895,0.146920347208,0.0934135477494,0.405331951653,0.519000000001,0.45,0,0,1,1057,4
0.613224277255,0.0317972718725,0.083136704458,1.07865726309,0.439000000001,0.45,3,3,2,1058,4
0.35349623374,0.0293384528551,1.02333469677,0.0804424035714,0.521000000001,0.45,2,2,1,1059,4
1.16391929909,0.248276171722,0.190668530862,0.104672212528,0.434000000001,0.45,0,0,2,1060,4
0.14730385938,0.161466560047,1.06109225261,0.209184943076,0.357000000001,0.45,2,2,2,1061,4
0.525394825801,0.0393136183592,0.102055872618,1.03867503168,0.429000000001,0.45,3,3,2,1062,4
0.432731468065,1.10723673621,0.252224858509,-0.0321657131915,0.398000000001,0.45,1,1,2,1063,4
0.362060306639,0.215632988431,0.361109578494,1.04356633165,0.420000000001,0.45,3,3,2,1064,4
0.404394808419,0.246797714867,1.10444578,0.272894344855,0.354000000001,0.45,2,2,2,1065,4
1.02324215857,0.131246555028,0.150187576217,0.164051452238,0.310000000001,0.45,1,0,-1,1066,4
1.11656852801,0.0923277043459,0.438324919034,0.127606962524,0.403000000001,0.45,0,0,2,1067,4
0.292549906354,0.0283291546969,0.27063640952,1.00322374911,0.367000000001,0.45,3,3,2,1068,4
1.06332866004,0.023983687183,0.155601306159,0.366613113131,0.350000000001,0.45,0,0,2,1069,4
0.395246833082,1.03898460561,0.580431963835,0.158248114613,0.408000000001,0.45,1,1,2,1070,4
0.193071654463,0.114628300874,1.05326019205,0.297898554804,0.349000000001,0.45,2,2,2,1071,4
1.16161959742,0.148093188114,0.212237202678,0.321837879717,0.371000000001,0.45,0,0,2,1072,4
0.359807604182,0.041989703682,0.242678677696,1.02562414374,0.374000000001,0.45,3,3,2,1073,4
0.169019312222,0.039302017804,1.08493888438,0.0999336234942,0.347000000001,0.45,2,2,2,1074,4
1.16939689451,0.0463372589737,0.218706496038,0.318305425705,0.368000000001,0.45,1,0,-1,1075,4
0.0509721158053,0.0641324290681,1.05611546195,0.240925624607,0.383000000001,0.45,2,2,2,1076,4
0.265481798374,0.0807776610933,0.657756020391,1.03586186822,0.451000000001,0.45,3,3,1,1077,4
0.224690527288,1.02819877385,0.241385573291,0.133107086929,0.408000000001,0.45,1,1,2,1078,4
0.141814204022,0.0170980227995,0.256932101202,1.05357572831,0.347000000001,0.45,3,3,2,1079,4
1.07416142908,0.281736725439,0.154425340359,0.188161086256,0.360000000001,0.45,0,0,2,1080,4
0.049326724535,0.0450186416056,1.04812148871,0.175167099017,0.401000000001,0.45,2,2,2,1081,4
1.09173451198,0.120891264894,0.114956619648,0.259146486025,0.303000000001,0.45,0,0,2,1082,4
0.163053846025,1.12830284402,0.359517985792,0.153618303853,0.352000000001,0.45,1,1,2,1083,4
1.04367273523,0.90100191199,0.50350605945,0.170027311815,0.531000000001,0.45,0,0,1,1084,4
0.252656764295,0.223642811979,0.227329688346,1.11999667065,0.466000000001,0.45,3,3,1,1085,5
0.254822191876,0.439091158281,1.05347546169,0.181903672598,0.405000000001,0.45,2,2,2,1086,5
0.386492719614,1.01898986051,0.253897955834,0.166252820472,0.322000000001,0.45,1,1,2,1087,5
1.12031371439,0.331609152435,0.218498643931,0.213435199363,0.301000000001,0.45,0,0,2,1088,5
0.247789566985,1.11246236349,0.357751882154,0.251352476003,0.352000000001,0.45,1,1,2,1089,5
0.177610063173,0.43117961224,1.03001536963,0.239871341956,0.329000000001,0.45,2,2,2,1090,5
1.0074098794,0.3141580362,0.249868755011,0.238533489488,0.308000000001,0.45,0,0,2,1091,5
0.132625427108,0.612661597879,1.06239472058,0.409409957407,0.395000000001,0.45,2,2,2,1092,5
0.293132070597,0.0750253810414,0.260163544936,1.04211557828,0.374000000001,0.45,3,3,2,1093,5
0.573615059352,1.00964447164,0.285366678317,0.110043168785,0.385000000001,0.45,0,1,-1,1094,5
0.142469845143,0.0493445557542,1.11565999875,0.327141887917,0.364000000001,0.45,3,2,-1,1095,5
1.03020726502,0.136414914839,0.191085132652,0.143426161747,0.368000000001,0.45,1,0,-1,1096,5
0.0846069398147,0.150316182798,0.882546537646,1.14738200383,0.373000000001,0.45,3,3,2,1097,5
0.0927940943538,0.410518113062,1.06199624415,0.341464663572,0.358000000001,0.45,2,2,2,1098,5
1.06692878951,0.443792164187,0.29111885059,0.234439032261,0.352000000001,0.45,0,0,2,1099,5
0.338002454685,1.08002231917,0.27228036569,0.22699970384,0.324000000001,0.45,1,1,2,1100,5
0.151923627354,1.05041571905,0.40557213453,0.407764673051,0.333000000001,0.45,2,1,-1,1101,5
0.203470469533,1.16155260218,0.312265860696,0.16118451262,0.370000000001,0.45,1,1,2,1102,5
1.05735842197,0.492407054887,0.291893000517,0.329446128238,0.371000000001,0.45,0,0,2,1103,5
0.0745729109242,0.17103414923,0.303259989632,1.05430579565,0.365000000001,0.45,3,3,2,1104,5
1.00764872146,0.36781794529,0.198824032594,0.0899499768754,0.362000000001,0.45,0,0,2,1105,5
0.0487175783139,0.24330825207,1.05180295133,0.459236586206,0.357000000001,0.45,2,2,2,1106,5
0.303476581907,0.17994493589,0.199596419848,1.08557741779,0.440000000001,0.45,3,3,2,1107,5
0.325906425452,1.09970119038,0.226275982573,0.120022530282,0.438000000001,0.45,1,1,2,1108,5
0.291806951257,0.198569389615,0.211065106682,1.04743021796,0.431000000001,0.45,3,3,2,1109,5
0.190042451771,0.463664947878,1.07839144395,0.27590829656,0.510000000001,0.45,2,2,1,1110,5
1.13278480675,0.28764313458,0.14001346356,0.15747344424,0.392000000001,0.45,0,0,2,1111,5
0.1966250032,1.0298052483,0.410147163918,0.169719590089,0.351000000001,0.45,1,1,2,1112,5
1.15776919703,0.384989620185,0.263845755343,0.122789791427,0.414000000001,0.45,0,0,2,1113,5
0.232994142327,0.4004333655,1.01507979068,0.218417170368,0.352000000001,0.45,2,2,2,1114,5
0.215908900367,0.377944077298,1.01700571786,0.158908293941,0.353000000001,0.45,1,2,-1,1115,5
0.319551686823,0.0437258292502,0.343867394821,1.02763109532,0.412000000001,0.45,3,3,2,1116,5
0.411075861067,1.11324337435,0.23332253718,0.0940992639866,0.303000000001,0.45,0,1,-1,1117,5
0.045849734349,0.0996223943699,1.05558243922,0.662322421801,0.391000000001,0.45,3,2,-1,1118,5
0.483458093727,1.04322562011,0.134042349436,0.120975415274,0.445000000001,0.45,1,1,2,1119,5
0.0739434311919,0.117221370926,1.04342343091,0.181710683008,0.365000000001,0.45,2,2,2,1120,5
0.369289212598,0.138246069742,0.111176030561,1.00099876046,0.404000000001,0.45,3,3,2,1121,5
0.208956882139,0.182602689152,1.09027574739,0.227443646733,0.445000000001,0.45,2,2,2,1122,5
1.11956109842,0.118557225042,0.124330433901,0.114778821612,0.454000000001,0.45,0,0,1,1123,5
0.121482735891,1.0651473782,0.281911156628,0.162250239286,0.584000000001,0.45,1,1,1,1124,5
0.149381206065,0.0844790121623,1.00063520633,0.407440059927,0.406000000001,0.45,2,2,2,1125,5
0.172982565611,1.07801886243,0.209206583247,0.549130146426,0.383000000001,0.45,1,1,2,1126,5
1.10433864177,0.222543626677,0.124399530902,0.127248988648,0.344000000001,0.45,0,0,2,1127,5
0.137372556131,0.217941077508,1.04551876491,0.249595065972,0.299000000001,0.45,2,2,2,1128,5
0.322535830032,0.204460489991,0.20953552503,1.00904720243,0.333000000001,0.45,3,3,2,1129,5
0.388512547019,1.05593450205,0.140366640405,0.0985272013044,0.330000000001,0.45,0,1,-1,1130,5
0.186196495223,0.0561336347176,1.02601515167,0.241864611439,0.338000000001,0.45,3,2,-1,1131,5
0.520447194345,1.08611658709,0.297575229301,0.127559519642,0.399000000001,0.45,1,1,2,1132,5
0.10244411767,0.0355465051837,0.200099480902,1.02811282309,0.352000000001,0.45,3,3,2,1133,5
0.959664097828,1.03097826022,0.138607734704,0.0760119615916,0.394000000001,0.45,1,1,2,1134,5
1.08684742825,0.0827456069672,0.142837154722,0.175764614141,0.417000000001,0.45,0,0,2,1135,5
0.181162488507,0.0406736638525,1.1086042293,0.565988814873,0.366000000001,0.45,2,2,2,1136,5
1.2333685502,0.131918916262,0.164158911692,0.228641207964,0.405000000001,0.45,0,0,2,1137,5
0.116344309831,1.05301820253,0.619148345392,0.24148528483,0.411000000001,0.45,1,1,2,1138,5
0.141335808213,1.02789633551,0.333064632474,0.406061383912,0.387000000001,0.45,2,1,-1,1139,5
0.534001292651,1.03387599885,0.189551090241,0.0975890552081,0.377000000001,0.45,1,1,2,1140,5
0.0803727437665,0.0201816251772,0.316012727302,1.14076794828,0.405000000001,0.45,3,3,2,1141,5
1.16666515437,0.0925281094402,0.180240086292,-0.0103123940223,0.361000000001,0.45,0,0,2,1142,5
0.0741730509429,0.0895055793109,0.352364183603,1.03068216652,0.451000000001,0.45,3,3,1,1143,5
0.161646583649,0.305004792907,1.04223659643,0.115994445592,0.507000000001,0.45,2,2,1,1144,5
0.214005095538,0.587823210696,0.22696642358,0.0366575433471,0.7,0.45,3,-1,0,1146,5
0.18707030942,0.188409916176,0.302112547856,1.03558214231,0.241000000001,0.45,2,3,-1,1146,5
1.06933662138,0.173246787239,0.122863937198,0.077205170777,0.285000000001,0.45,1,0,-1,1147,5
1.0002330808,0.0704383422706,0.0722332697335,0.0777195327334,0.196000000001,0.45,0,0,2,1148,5
0.0476805856825,0.0473160014218,1.03820977646,0.196851933311,0.400000000001,0.45,2,2,2,1149,5
1.1353550193,0.0722810272073,0.23208595525,0.104089078646,0.414000000001,0.45,0,0,2,1150,5
1.0255273456,0.333369454275,0.242777786718,0.0929614906563,0.410000000001,0.45,1,0,-1,1151,5
0.0739850993833,0.170287082068,0.350765884396,1.12342080933,0.380000000001,0.45,3,3,2,1152,5
1.14429543151,0.259217660797,0.195576729644,0.0796934299971,0.411000000001,0.45,0,0,2,1153,5
0.194064314226,0.194072062083,0.355242325712,1.08605599384,0.452000000001,0.45,3,3,1,1154,5
0.367665158652,1.15425333566,0.299674421196,0.100296150264,0.467000000001,0.45,1,1,1,1155,5
0.0906019822113,0.3928518423,1.00742850832,0.541151078392,0.502000000001,0.45,2,2,1,1156,5
0.289889457752,0.0446054104353,0.26630223134,1.03915524707,0.501000000001,0.45,3,3,1,1157,5
1.03104123517,0.251518414004,0.133917107669,0.0619341903716,0.384000000001,0.45,0,0,2,1158,5
0.301655454719,1.14470835159,0.231044838369,0.12180206007,0.330000000001,0.45,1,1,2,1159,5
0.0755234228097,0.201111227212,1.06311038726,0.143286950062,0.335000000001,0.45,2,2,2,1160,5
1.0155861005,0.0976688797154,0.188145062841,0.0588526563698,0.367000000001,0.45,0,0,2,1161,5
0.0758903237976,0.0973632423059,1.02409238351,0.25484269822,0.448000000001,0.45,2,2,2,1162,5
0.432560623085,1.1391403757,0.212539372206,0.0773142596013,0.491000000001,0.45,1,1,1,1163,5
0.0888874402593,0.0173986749039,0.345974116714,1.03996816796,0.410000000001,0.45,3,3,2,1164,5
0.0986341544451,0.112168718371,1.00455454027,0.224851678743,0.487000000001,0.45,2,2,1,1165,5
0.100844326104,0.166392752118,0.319512539069,1.01676988296,0.567000000001,0.45,3,3,1,1166,5
0.318595242051,1.03517338788,0.18066745192,-0.0599444365543,0.449000000001,0.45,1,1,2,1167,5
1.02629339513,0.128202962076,0.213894015118,0.0370976645817,0.420000000001,0.45,0,0,2,1168,5
0.102849508265,0.0825922867836,0.233200739616,1.03723705219,0.387000000001,0.45,3,3,2,1169,5
1.10721892694,0.293073292061,0.0781948576905,0.0088167710635,0.374000000001,0.45,0,0,2,1170,5
0.0252938401487,0.126229042945,1.02687458285,0.122464383975,0.354000000001,0.45,2,2,2,1171,5
0.656081419836,1.22762284935,0.161378357742,0.0411800252226,0.411000000001,0.45,1,1,2,1172,5
0.0769686003984,0.351182688118,1.04023856131,0.230568904249,0.394000000001,0.45,2,2,2,1173,5
1.10392214774,0.158015950715,0.0891016493927,0.00532510059019,0.437000000001,0.45,0,0,2,1174,5
0.324831779099,1.06336089917,0.215726487321,0.0755214645009,0.519000000001,0.45,1,1,1,1175,5
0.37645724318,0.0639539139064,0.405609557054,1.0424218226,0.438000000001,0.45,3,3,2,1176,5
0.124135753346,0.255996178017,1.0473281754,0.146086601388,0.435000000001,0.45,2,2,2,1177,5
0.220325971238,0.1329379126,0.271472002445,1.00523650385,0.442000000001,0.45,3,3,2,1178,5
0.652085296863,1.15997863854,0.127204841959,0.0199191051396,0.433000000001,0.45,1,1,2,1179,5
1.18708599525,0.0217296192802,0.104896888058,0.0619692706415,0.412000000001,0.45,0,0,2,1180,5
