force_0,force_1,force_2,force_3,rt,rt_threshold,target_finger,selected_finger,score,trial,run
0.214112531393,0.115771844505,1.01290907147,0.281510649226,0.515,0.45,2,2,1,0,0
1.10874314472,0.115308319579,0.246637501313,0.447081145489,0.472,0.45,0,0,1,1,0
0.304970538338,1.01141916334,0.49921369528,0.351362646091,0.561,0.45,1,1,1,2,0
0.195832550779,0.118303315354,0.839129247814,1.11247955917,0.456,0.45,3,3,1,3,0
0.71632626758,1.0527165131,0.0344551945885,0.348921153667,0.428,0.45,0,1,-1,4,0
0.193082863839,0.0253240475057,0.156620597862,1.03496462468,0.377,0.45,3,3,2,5,0
0.600073632522,1.03740538798,0.648504494853,0.444573479362,0.494,0.45,1,1,1,6,0
1.11453002719,0.365111292619,0.025193180657,0.288127945401,0.486,0.45,0,0,1,7,0
0.227417694348,0.104323838403,0.0944804706847,1.04727744302,0.375,0.45,2,3,-1,8,0
0.334561292337,-0.0057523319313,0.187696203489,1.00713677389,0.47,0.45,3,3,1,9,0
0.15844852177,-0.00768183235352,1.09996303963,0.288971916276,0.653,0.45,2,2,1,10,0
0.570374795001,1.02753386593,0.180030857227,0.264422490944,0.613,0.45,1,1,1,11,0
0.510147700136,0.312913542535,0.355247314702,0.238659930808,0.7,0.45,2,-1,0,13,0
0.562739415744,1.10789009125,0.131388961568,0.139871929903,0.548,0.45,1,1,1,13,0
1.01866733627,0.175240067654,0.115442261774,0.160691949586,0.573,0.45,0,0,1,14,0
0.330794014107,0.139855429485,0.172242931926,1.0155785172,0.46,0.45,3,3,1,15,0
1.07946673562,0.105032746954,0.0902581136243,0.203794240085,0.364,0.45,0,0,2,16,0
0.256575584918,0.0679076924698,1.14262036621,0.302219886373,0.469,0.45,1,2,-1,17,0
0.305281623441,0.140864526243,0.145317906215,1.0269478286,0.494,0.45,3,3,1,18,0
0.596488146403,1.04421986981,0.113646428647,0.279134991936,0.5,0.45,1,1,1,19,0
0.119833980166,0.293096849675,1.02470067847,0.446185984789,0.514,0.45,2,2,1,20,0
1.0382384311,0.125184940273,0.0680205417149,0.248489360053,0.41,0.45,0,0,2,21,0
0.160166903537,0.10510885137,1.13862132473,0.246160523116,0.293,0.45,2,2,2,22,0
0.342182861849,0.0745797971543,0.261879971563,1.00614294476,0.36,0.45,3,3,2,23,0
0.220369354945,0.0731978156575,1.07006797547,0.358501329842,0.496,0.45,2,2,1,24,0
0.317335909082,0.0548000665168,0.821109695297,1.03988789816,0.59,0.45,3,3,1,25,0
1.07540780486,0.0928934534552,0.116490902325,0.262249702436,0.454,0.45,0,0,1,26,0
0.327982975841,1.00169519013,0.333751226893,0.23965567611,0.508,0.45,1,1,1,27,0
1.12614856241,0.135217474978,0.127161454309,0.243171584792,0.593,0.45,0,0,1,28,0
0.223657740023,0.0686755138243,0.516087623649,1.02769806735,0.523,0.45,3,3,1,29,0
0.362565804509,1.06892923215,0.103219223012,0.251223234116,0.521,0.45,1,1,1,30,0
0.189964335627,0.0207829443524,0.738385447902,1.00690783226,0.526,0.45,3,3,1,31,0
0.309679272072,0.056003747508,1.12387284453,0.493392455817,0.623,0.45,2,2,1,32,0
0.51413836386,1.08011888926,0.235793708871,0.308808339193,0.478,0.45,1,1,1,33,0
0.171138585019,0.00797931567311,1.0268872789,0.320381966553,0.384,0.45,2,2,2,34,0
1.05734724362,0.238775961237,0.0997245662633,0.177236612051,0.348,0.45,0,0,2,35,0
0.205136709963,0.0238007607638,1.12204341194,0.276474353531,0.328,0.45,2,2,2,36,0
1.11152835061,-0.00669125567374,0.151504594734,0.18850200677,0.314,0.45,1,0,-1,37,0
0.122058045962,0.0311154152249,0.256610384278,1.12117473228,0.454,0.45,3,3,1,38,0
1.20356444017,0.0831035737657,0.109123063907,0.269146803341,0.444,0.45,0,0,2,39,0
0.206913114823,1.0039263175,0.190226151749,0.268101896482,0.557,0.45,1,1,1,40,0
1.21097076712,0.122878867142,0.0981296845732,0.251051997269,0.6,0.45,0,0,1,41,0
0.221232621964,0.0734565124341,0.180266377116,1.08278391323,0.509,0.45,3,3,1,42,0
0.345004382168,1.06002010215,0.0557257283336,0.285035004504,0.497,0.45,1,1,1,43,0
0.181385717177,0.0251585679463,1.01452396169,0.335378522961,0.41,0.45,2,2,2,44,0
0.334018696173,0.073406617644,0.11147102447,1.05400451675,0.493,0.45,3,3,1,45,0
0.249651912602,0.143388931047,0.258772475713,0.353068673132,0.7,0.45,2,-1,0,47,0
0.20973511468,0.0567614371232,1.01575724114,0.389594539544,0.064,0.45,0,2,-1,47,0
0.266234743085,-0.0152272750439,1.10663268896,0.265539209536,0.436,0.45,2,2,2,48,0
1.22896725743,-0.0155766347061,0.127268109907,0.275945525001,0.414,0.45,0,0,2,49,0
0.499975645503,1.14726809192,0.154576776383,0.160992092571,0.456,0.45,1,1,1,50,0
0.275806530359,0.077093445139,0.149522347456,0.551139464251,0.7,0.45,3,-1,0,52,0
0.306614798814,0.0530656721247,0.15688979226,1.0311774647,0.147,0.45,0,3,-1,52,0
0.443555156717,0.160534642388,0.266325930203,1.03351288608,0.455,0.45,3,3,1,53,0
0.301575575745,1.00700080623,0.21041524998,0.271135886609,0.451,0.45,1,1,1,54,0
0.247667887537,0.401225861208,1.02000221559,0.322529144585,0.463,0.45,2,2,1,55,0
0.615847694822,1.18113598047,0.241098890777,0.0312953447695,0.387,0.45,1,1,2,56,0
1.11492997865,0.244759490366,0.219917143564,0.185699824975,0.385,0.45,0,0,2,57,0
0.231867320382,0.143055945037,1.03112859654,0.343389415021,0.406,0.45,2,2,2,58,0
0.340080837107,0.0883455226502,0.289652123056,1.03201854375,0.381,0.45,3,3,2,59,0
0.332124569809,0.0283450938809,1.09970108359,0.289224028048,0.508,0.45,2,2,1,60,0
1.06879116921,0.193515325739,0.260016495498,0.252665586545,0.541,0.45,0,0,1,61,0
0.19331641455,0.0184267336088,0.554339346522,1.02581293505,0.54,0.45,3,3,1,62,0
0.724409149103,1.02490156088,0.380570601772,0.314774857837,0.595,0.45,1,1,1,63,0
0.325668452561,0.0853931987516,0.145244541571,1.00793560692,0.478,0.45,3,3,1,64,0
1.08735007684,0.330178024317,0.0878434978269,0.22008882747,0.437,0.45,0,0,2,65,0
1.01608633643,0.0289141281847,0.111593528159,0.160411393232,0.469,0.45,1,0,-1,66,0
1.06641439634,0.0848491856272,0.117504939992,0.10116774757,0.521,0.45,0,0,1,67,0
0.292134161833,0.123801895363,1.00764140996,0.235250597899,0.593,0.45,2,2,1,68,0
0.297239432667,0.0248111543499,0.153902086787,1.00238294768,0.508,0.45,3,3,1,69,0
0.337362356477,0.0264807084536,1.01448912998,0.378254917458,0.575,0.45,2,2,1,70,0
0.559434485286,1.03067788875,0.148226049816,0.237601020992,0.495,0.45,1,1,1,71,0
0.162880938595,0.0248405515654,0.416654498284,0.228722551453,0.7,0.45,2,-1,0,73,0
0.31891685648,0.335277580503,0.108382528226,0.187368617174,0.7,0.45,1,-1,0,74,0
0.438333323319,1.07401007899,0.0989210061204,0.177740387485,0.042,0.45,0,1,-1,74,0
0.211823119909,0.0191388101278,0.0997529392892,0.708671585582,0.7,0.45,3,-1,0,76,0
0.216014991175,0.0196273906189,0.129188883542,1.07565777744,0.038,0.45,1,3,-1,76,0
0.205878703828,0.0967733131986,0.0914066950084,1.00595805096,0.372,0.45,3,3,2,77,0
1.06845449754,0.0839581911373,0.0499074771117,0.276606113693,0.394,0.45,0,0,2,78,0
0.336639121445,1.07516480737,0.0831041051135,0.280105537051,0.519,0.45,1,1,1,79,0
0.145438079886,0.0328035072778,1.00942979476,0.300192335032,0.429,0.45,2,2,2,80,0
0.178282915183,0.0203116654812,0.135204726381,1.02077945366,0.377,0.45,3,3,2,81,0
0.192919087263,0.29886889914,1.02601586466,0.47786127037,0.469,0.45,2,2,1,82,0
1.01913269553,0.0127373453387,0.140151534142,0.231933111096,0.393,0.45,0,0,2,83,0
0.13220466649,0.00501674103707,1.09792836515,0.212922224787,0.358,0.45,2,2,2,84,0
0.30078699362,0.143554287984,0.370732453045,1.05999358032,0.468,0.45,3,3,1,85,0
1.36534306036,0.528382002044,0.117669678445,0.312772835962,0.436,0.45,0,0,2,86,0
1.05897979136,0.00101377010141,0.0913380079619,0.139149197612,0.53,0.45,1,0,-1,87,0
0.412793398042,0.236457983339,0.242221351334,0.123303382767,0.7,0.45,0,-1,0,89,0
0.336975526007,0.168429523185,0.17796427426,0.612019252737,0.7,0.45,3,-1,0,90,0
0.320451349082,0.0552677549844,0.303700120736,1.00327543257,0.117,0.45,1,3,-1,90,0
0.160862007579,0.0538498277614,1.04107629464,0.409667384534,0.574,0.45,2,2,1,91,0
1.06952634628,0.0862164059606,0.21921340517,0.280477817657,0.518,0.45,0,0,1,92,0
0.191156111308,0.0382256522063,1.01678976664,0.2753712991,0.447,0.45,2,2,2,93,0
1.00103914401,0.0556614430475,0.125656917037,0.247006233624,0.379,0.45,1,0,-1,94,0
0.273420694671,0.024658412046,0.212373898799,1.07835809337,0.565,0.45,3,3,1,95,0
0.122126158686,0.0170834264536,0.701331152457,0.390359641603,0.7,0.45,2,-1,0,97,0
0.553213850975,1.07230949302,0.18286404913,0.349996616968,0.6,0.45,1,1,1,97,0
0.210135727105,0.0246740640529,0.339263657142,1.0085301994,0.52,0.45,3,3,1,98,0
1.09404131523,0.0219055468413,0.105374527652,0.332292765662,0.559,0.45,0,0,1,99,0
0.292707250438,0.00943705651159,1.01264206923,0.341323514439,0.507,0.45,3,2,-1,100,0
0.570360730499,1.02406046177,0.115534944414,0.322732251528,0.523,0.45,1,1,1,101,0
1.05872240566,0.147862160526,0.141363096939,0.277984897542,0.496,0.45,0,0,1,102,0
0.414981246539,0.550086952917,0.177865626543,0.396645509511,0.7,0.45,1,-1,0,104,0
0.495744214556,1.05259614534,0.168715233063,0.374859775745,0.0450000000001,0.45,2,1,-1,104,0
0.391267576713,0.108150171545,0.191294913785,1.00850369563,0.432,0.45,3,3,2,105,0
0.335595973375,0.0281825411336,1.00957999075,0.399097445016,0.589,0.45,2,2,1,106,0
1.0553530027,0.147922653214,0.218648549385,0.367729108687,0.624,0.45,0,0,1,107,0
0.262480577274,0.11051913144,1.03724342735,0.324601021561,0.632,0.45,2,2,1,108,0
0.358186975656,0.117663357362,0.125163055801,1.00987059072,0.571,0.45,3,3,1,109,0
1.01874731939,0.13638808297,0.0801134828888,0.288908431393,0.47,0.45,0,0,1,110,0
0.532426886095,1.01618781458,0.304786471748,0.229959676614,0.604,0.45,1,1,1,111,0
0.270296672302,0.125616573577,0.293833476168,1.02210530495,0.475,0.45,3,3,1,112,0
0.460533727511,1.00767859397,0.051467567543,0.235018683824,0.46,0.45,1,1,1,113,0
1.08279911554,0.174015976023,0.0620857594455,0.269090356828,0.417,0.45,0,0,2,114,0
0.294547107613,0.110224191994,1.00486795218,0.223815505707,0.445,0.45,2,2,2,115,0
1.0679859359,0.113460155126,0.115973021876,0.157211409564,0.366,0.45,0,0,2,116,0
0.289845572005,0.0857554616428,0.357160495266,1.00265612594,0.516,0.45,3,3,1,117,0
0.282287489158,0.151333741345,1.04712815492,0.221807003422,0.621,0.45,2,2,1,118,0
0.457220079023,1.03329628624,0.140635044572,0.182029726942,0.526,0.45,1,1,1,119,0
0.233369003947,0.0462144720002,1.06582194492,0.771926504743,0.584,0.45,2,2,1,120,0
0.305221546702,0.0347318847015,0.316767163093,1.01272943563,0.477,0.45,3,3,1,121,0
0.506343722821,1.00922333676,0.0992842793798,0.160966531546,0.517,0.45,1,1,1,122,0
1.03530392578,0.135315495897,0.14711488903,0.155032991514,0.506,0.45,0,0,1,123,0
0.284031602672,0.127914302997,0.264632177635,1.05068520835,0.649,0.45,3,3,1,124,0
1.06186035092,0.127161872987,0.0808338694007,0.219236914228,0.567,0.45,0,0,1,125,0
0.443997847041,1.03939421331,0.106815237621,0.118690032538,0.558,0.45,1,1,1,126,0
0.292784027226,0.12402928586,1.04558697359,0.204679904497,0.447,0.45,2,2,2,127,0
1.06549518546,0.142775644571,0.258635461738,0.147254838195,0.43,0.45,1,0,-1,128,0
0.336714784941,0.167851698336,0.271135444563,1.114883114,0.526,0.45,3,3,1,129,0
0.209429265122,0.0358162321158,1.02296013358,0.418802308994,0.521,0.45,2,2,1,130,0
1.2079633675,0.0969688973997,0.17712698294,0.179120086432,0.471,0.45,0,0,1,131,0
0.24402174752,0.0732967649867,1.00059611193,0.248039172587,0.472,0.45,2,2,1,132,0
0.420722031774,1.05206000101,0.123273897837,0.215963218091,0.467,0.45,1,1,1,133,0
0.364298998102,0.123205117383,0.171111469279,1.09700333795,0.411,0.45,3,3,2,134,0
1.07904299693,0.119551183726,0.0956204386937,0.236568079838,0.339,0.45,0,0,2,135,0
0.386251824284,1.04366057998,0.122510354469,0.295569877603,0.487,0.45,1,1,1,136,0
1.00777075911,0.110381072388,0.168521204404,0.215303219731,0.448,0.45,0,0,2,137,0
0.364114351948,0.0905348205859,0.289282360264,1.06975273189,0.573,0.45,3,3,1,138,0
0.292185958752,0.108508313863,1.03396006997,0.26046262363,0.641,0.45,2,2,1,139,0
0.411718955605,0.0812469319667,0.197871354877,1.00874680929,0.64,0.45,3,3,1,140,0
0.453336272378,1.09735266502,0.104823318987,0.287359274457,0.532,0.45,1,1,1,141,0
0.30764374946,0.0754465809727,1.01707834886,0.496849291682,0.589,0.45,2,2,1,142,0
1.09504231713,0.0893526066646,0.229090950696,0.212417834217,0.532,0.45,0,0,1,143,0
0.175188061584,0.0466170429712,1.02435889745,0.161320724676,0.4,0.45,2,2,2,144,0
0.567774280185,1.08400500302,0.556670859293,0.160587990616,0.473,0.45,1,1,1,145,0
1.09482099998,0.119935050362,0.0921479642781,0.158206652746,0.417,0.45,0,0,2,146,0
0.21208835507,0.0294460870561,0.591404924248,1.03882310715,0.478,0.45,3,3,1,147,0
1.05008123054,0.0807560357284,0.0967532820546,0.197123834954,0.389,0.45,0,0,2,148,0
0.860608759688,1.0426075575,0.174170428115,0.169007669666,0.475,0.45,1,1,1,149,0
0.390105796172,0.0719318212026,0.224063578261,0.79622483747,0.7,0.45,3,-1,0,151,0
0.342085327998,0.0804519005533,1.14651822814,0.165875247104,0.618,0.45,2,2,1,151,0
1.12891820463,0.0607048361648,0.09996706975,0.190118766872,0.472,0.45,0,0,1,152,0
0.193602186357,0.0558845948329,1.00199155585,0.191741739654,0.405,0.45,2,2,2,153,0
0.433510038231,0.131180023316,0.235812766132,1.08765531614,0.455,0.45,3,3,1,154,0
0.40568615467,1.02592987562,0.0796946034011,0.269174215895,0.343,0.45,1,1,2,155,0
0.172233665417,0.100817758731,1.04455246419,0.169592275862,0.508,0.45,2,2,1,156,0
0.273767652243,0.0353040781954,0.189848859725,1.00472660682,0.527,0.45,3,3,1,157,0
1.05360676522,0.0767151327602,0.0691325427949,0.230543723414,0.464,0.45,0,0,1,158,0
0.344201696353,1.04079156708,0.11118093613,0.111711161478,0.519,0.45,1,1,1,159,0
0.438101914429,0.11176761761,0.180913622947,1.00146455826,0.589,0.45,3,3,1,160,0
0.573635045227,1.06875168809,0.0715686473754,0.221744342607,0.56,0.45,1,1,1,161,0
1.04658078612,0.0944618739964,0.0783179457676,0.152873951683,0.467,0.45,0,0,1,162,0
0.321999592204,0.137816296531,0.289656449774,1.00240927806,0.559,0.45,3,3,1,163,0
0.324703632056,0.0222021045869,1.00237307743,0.216813807121,0.694,0.45,2,2,1,164,0
0.573170124203,1.00878117695,0.204297394364,0.196427484136,0.533,0.45,1,1,1,165,0
0.195284366089,0.0726364136105,1.04647354117,0.144338550838,0.531,0.45,2,2,1,166,0
1.06188097249,0.106344744981,0.103814494247,0.14731232765,0.427,0.45,0,0,2,167,0
0.21277915765,0.646195105268,0.164373337826,0.188694128863,0.7,0.45,2,-1,0,169,0
0.254085002826,1.11140669045,0.0824532049489,0.172301634057,0.0410000000001,0.45,0,1,-1,169,0
0.277796495558,0.163128566691,0.225097690525,1.03115072488,0.474,0.45,3,3,1,170,0
0.370592172863,1.00833054647,0.100139333794,0.210054879519,0.421,0.45,1,1,2,171,0
0.277501694111,0.120101677562,1.02443319973,0.216991777167,0.33,0.45,3,2,-1,172,0
1.07089411652,0.0773666157917,0.0984297111887,0.16623250649,0.454,0.45,0,0,1,173,0
0.392617090704,1.02904227798,0.0694575007191,0.140863218426,0.564,0.45,1,1,1,174,0
1.00483997519,0.105686559909,0.0678017479364,0.11834948345,0.512,0.45,0,0,1,175,0
0.328591224174,0.364457028945,0.266158581505,0.118445752844,0.7,0.45,2,-1,0,177,0
0.248690634593,0.187914657346,1.00566171545,0.156723923094,0.14,0.45,3,2,-1,177,0
0.262086330044,0.863051132179,0.128929901299,0.129897924733,0.7,0.45,2,-1,0,179,0
0.341734951586,0.19680498324,0.104869413089,0.142785838205,0.7,0.45,1,-1,0,180,0
0.386524654784,1.13224688769,0.0684421923289,0.126337251318,0.109,0.45,2,1,-1,180,0
0.383069141009,1.0070084477,0.0318341158843,0.0869351696699,0.537,0.45,1,1,1,181,0
0.304435906761,0.117497901334,0.0312934576767,1.00488385447,0.674,0.45,3,3,1,182,0
1.03556006554,0.0359875447291,0.031257206882,0.176817422559,0.553,0.45,0,0,1,183,0
0.416622112917,0.627959356656,0.0312505170366,0.128492634986,0.7,0.45,1,-1,0,185,0
0.471286722839,1.00715223449,0.0312504291612,0.13281940434,0.0620000000001,0.45,0,1,-1,185,0
0.315858892484,0.208647505119,0.0312500066453,0.90489689062,0.7,0.45,3,-1,0,187,0
0.320662101882,0.198805395673,0.0312500061685,1.02928490052,0.0290000000001,0.45,1,3,-1,187,0
0.246421264425,0.116522223643,0.0312500000862,0.165237616536,0.7,0.45,2,-1,0,189,0
0.246944845039,0.104090590421,0.158841734792,0.761130306452,0.7,0.45,3,-1,0,190,0
0.204612825994,0.0698137753449,0.116991492323,1.01029147088,0.0670000000001,0.45,2,3,-1,190,0
1.13036020884,0.278205288316,0.0482279345918,0.0802552758052,0.351,0.45,0,0,2,191,0
0.347385262567,1.11816440129,0.0384140388417,0.191257837294,0.6,0.45,2,1,-1,192,0
0.356458729071,0.186002570672,0.258545904699,0.144416423665,0.7,0.45,3,-1,0,194,0
1.15519316683,0.183396280976,0.118858394577,0.411116463369,0.647,0.45,0,0,1,194,0
0.294485713348,0.483302113898,0.101873522286,0.0765728285218,0.7,0.45,1,-1,0,196,0
1.02838641539,0.0284417770718,0.0801113900204,0.184855539183,0.559,0.45,0,0,1,196,0
0.0960286291443,0.00839484256344,0.243760881033,1.04785885591,0.598,0.45,3,3,1,197,0
0.0865315500828,0.00823276187623,0.102866133903,1.01387915393,0.00100000000011,0.45,1,3,-1,198,0
0.172645401602,0.0672628763249,1.00136885214,0.36991792462,0.613,0.45,2,2,1,199,0
1.18330115426,0.0270418728726,0.0648678020028,0.186075820303,0.524,0.45,0,0,1,200,0
0.145197254979,-0.00372191079121,1.00988894919,0.0858012448325,0.412,0.45,2,2,2,201,0
0.573995854318,1.08923965484,0.067804901106,0.16688729997,0.413,0.45,1,1,2,202,0
0.365232192546,0.0381855792213,0.0792555590126,1.03505658014,0.356,0.45,3,3,2,203,0
1.01015366856,0.0247763016798,0.0294592740479,0.227420712618,0.216,0.45,2,0,-1,204,0
1.18856187403,-0.00617630489231,0.0238771584184,0.107865319766,0.351,0.45,1,0,-1,205,0
1.19494172792,-0.0075791872974,0.02350033216,0.0658592592899,0.278,0.45,0,0,2,206,0
0.382218574459,0.0211076044983,0.043371123545,1.0552151251,0.503,0.45,3,3,1,207,0
0.84063872627,1.11912627087,0.0376140846919,0.274997467275,0.65,0.45,1,1,1,208,0
0.144049944285,0.0157394321983,0.318841489823,1.00102160101,0.654,0.45,3,3,1,209,0
0.172338306859,0.0156717936021,0.0467265173043,1.00831834205,0.163,0.45,0,3,-1,210,0
0.158101015214,0.0156265200816,0.0236885627051,1.09260026305,0.537,0.45,2,3,-1,211,0
1.13486438909,0.0156251325731,0.174319010998,0.115639661417,0.623,0.45,0,0,1,212,0
0.520133529277,1.07458808523,0.132738131277,0.128883531867,0.524,0.45,1,1,1,213,0
0.0805971831617,0.0456206039841,1.00103835951,0.108165113943,0.45,0.45,2,2,1,214,0
0.0588890928613,0.0185409131373,0.0534204169269,1.01952172586,0.359,0.45,3,3,2,215,0
0.135034674386,0.0157914444615,1.04731822544,0.163421598444,0.573,0.45,2,2,1,216,0
0.305481869362,0.119661290878,1.16290800997,0.281141236945,0.467,0.45,2,2,1,217,1
0.208098711708,0.0207449122093,0.190694423902,1.15122709559,0.441,0.45,3,3,2,218,1
0.59752377553,1.07827069527,0.183140914976,0.142160321104,0.468,0.45,1,1,1,219,1
1.06733175474,0.15355312873,0.0667437908749,0.111422492773,0.418,0.45,0,0,2,220,1
0.279710586597,0.0832298033473,0.0947610279969,1.07394780693,0.454,0.45,3,3,1,221,1
1.08299104033,0.0926982139894,0.076691230294,0.158924383964,0.43,0.45,0,0,2,222,1
0.48953539744,1.11029962034,0.0866153312042,0.168162231807,0.499,0.45,1,1,1,223,1
0.387984884869,0.191538451733,1.10069814979,0.299231498641,0.38,0.45,2,2,2,224,1
1.13102870399,0.0689387464461,0.0949412634747,0.0670925801565,0.426,0.45,0,0,2,225,1
0.271474794955,0.0388032658916,1.08526200331,0.237941688579,0.449,0.45,2,2,2,226,1
0.430963282619,1.17345752099,0.17422288698,0.141646439506,0.534,0.45,1,1,1,227,1
0.240215716483,0.0385825689646,0.0817100402373,1.02407552008,0.438,0.45,3,3,2,228,1
0.116952538428,0.0404413510246,1.10692007886,0.316492826357,0.538,0.45,2,2,1,229,1
1.09827515589,0.0113673120024,0.106945095506,0.0691848128578,0.416,0.45,0,0,2,230,1
0.60923777258,1.05509837389,0.159695061673,0.0796225036215,0.394,0.45,1,1,2,231,1
0.168308164495,0.0460221287264,1.08073261806,0.345439964766,0.296,0.45,3,2,-1,232,1
1.11283246638,0.0458716058734,0.0901674863816,0.129535509716,0.459,0.45,0,0,1,233,1
0.225872411109,0.0321134689021,0.173734632933,1.01975757213,0.422,0.45,3,3,2,234,1
0.424121132512,1.03962742951,0.0417838571645,0.155288484218,0.509,0.45,1,1,1,235,1
1.11218511418,0.0422782838105,0.0393828712423,0.120410010266,0.493,0.45,0,0,1,236,1
0.168980344746,0.0410941750777,1.05315809058,0.314317846132,0.564,0.45,2,2,1,237,1
0.441756650419,1.01855936471,0.145483482466,0.135061383037,0.485,0.45,1,1,1,238,1
0.239532612442,0.102355784195,1.04082111921,0.291048485272,0.381,0.45,2,2,2,239,1
0.319991663614,0.087523406547,0.0350146915437,1.06137193267,0.414,0.45,3,3,2,240,1
0.19243403708,0.0493938726485,1.18051323083,0.808051791467,0.545,0.45,2,2,1,241,1
1.0326533528,0.0403128538947,0.249030088921,0.0438273739727,0.455,0.45,0,0,1,242,1
0.627336199802,1.19472666691,0.13438671515,0.185464682349,0.452,0.45,1,1,1,243,1
0.230096527502,0.0691606587466,0.223605396088,1.00853472475,0.456,0.45,3,3,1,244,1
0.347991311237,1.00589816374,0.0571856184177,0.253504017577,0.432,0.45,1,1,2,245,1
1.0170318807,0.0653692010505,0.0608038848438,0.252196913087,0.366,0.45,0,0,2,246,1
0.296413053673,0.0346878599006,0.0422510270467,1.13589035083,0.481,0.45,3,3,1,247,1
1.05649636145,0.0316435598871,0.0466036694508,0.138903348116,0.473,0.45,0,0,1,248,1
0.139825910067,0.0312850827326,1.03072840407,0.282745959987,0.552,0.45,2,2,1,249,1
0.436436408191,1.11219527171,0.154349174977,0.134701369652,0.47,0.45,1,1,1,250,1
0.230146217319,0.129706231955,1.0253742388,0.371772471557,0.545,0.45,2,2,1,251,1
0.414462221256,0.0279224208375,0.11894884232,1.08392109622,0.496,0.45,3,3,1,252,1
0.218503390001,0.024414122636,1.04247675428,0.524963037282,0.528,0.45,2,2,1,253,1
0.466398072882,1.06781164018,0.565079317268,0.100899203978,0.665,0.45,1,1,1,254,1
0.373873237399,0.154410238458,0.232467545221,1.16933922873,0.55,0.45,3,3,1,255,1
1.0440851292,0.278107000257,0.2022873783,0.219101297808,0.452,0.45,0,0,1,256,1
0.344855093033,0.148269379137,0.195006150858,1.02795140936,0.423,0.45,3,3,2,257,1
0.568155692102,1.0921402445,0.0854670122148,0.283991286019,0.49,0.45,1,1,1,258,1
1.16333419909,0.214560446815,0.0516500111366,0.210693976872,0.444,0.45,0,0,2,259,1
1.09684454333,0.135094438256,0.0403014190316,0.144256392925,0.456,0.45,1,0,-1,260,1
0.107754020849,0.442418522945,1.02915825285,0.210811676682,0.618,0.45,2,2,1,261,1
0.426678788512,0.171893655176,0.147010063683,1.05656449428,0.545,0.45,3,3,1,262,1
0.217138841258,0.0650529175277,1.08835207253,0.194180781592,0.642,0.45,2,2,1,263,1
1.10741778882,0.277093534474,0.107172086245,0.200196332397,0.568,0.45,0,0,1,264,1
0.218524338599,0.0484161968245,1.00233047873,0.219830097856,0.632,0.45,2,2,1,265,1
0.499540495216,1.01833279363,0.136810689159,0.132714871846,0.5,0.45,1,1,1,266,1
0.239251434544,0.0319189082882,0.105599880735,1.11241104927,0.538,0.45,3,3,1,267,1
1.08274983095,0.0931001703456,0.0662094787746,0.21094964629,0.532,0.45,0,0,1,268,1
1.00302691203,0.0295046835038,0.112885791771,0.164863539324,0.515,0.45,1,0,-1,269,1
0.725161240814,1.02929011201,0.0815848393658,0.158772089794,0.0340000000001,0.45,0,1,-1,270,1
0.129762275516,0.0165990331573,0.0666574608097,1.08687126946,0.469,0.45,3,3,1,271,1
0.100729999447,0.0318949567989,1.01749543279,0.272199170816,0.551,0.45,2,2,1,272,1
1.05179711037,0.0526487329006,0.0696037646295,0.188953692212,0.506,0.45,0,0,1,273,1
0.146758517572,0.0238629299996,1.05930002293,0.132409798298,0.526,0.45,2,2,1,274,1
0.338365841553,0.0234776617512,0.0954649829723,1.0498734213,0.586,0.45,3,3,1,275,1
0.633579892618,1.05124103716,0.0752434691124,0.235786475696,0.635,0.45,1,1,1,276,1
0.102977536884,0.053500252559,1.01146711081,0.148574729601,0.529,0.45,2,2,1,277,1
0.243453556351,0.0265695535613,0.0845456538207,1.03309625521,0.556,0.45,3,3,1,278,1
1.06121805896,0.025587499608,0.034371637047,0.220574587634,0.499,0.45,0,0,1,279,1
0.448485344354,1.02287589405,0.031767835321,0.150348923999,0.368,0.45,1,1,2,280,1
1.00579355179,0.0234045356142,0.117934074623,0.120384076103,0.466,0.45,0,0,1,281,1
0.07748044766,0.0234348489832,0.050808811321,1.04559744274,0.514,0.45,3,3,1,282,1
0.30496896551,1.06806620784,0.0526101590142,0.209100498796,0.598,0.45,1,1,1,283,1
0.082448584856,0.020768278101,1.01634137315,0.224988239744,0.444,0.45,2,2,2,284,1
0.353739563642,1.05171291445,0.115150458676,0.23809735968,0.417,0.45,1,1,2,285,1
0.0733923198925,0.0335057785667,0.0973601837551,1.10838181034,0.514,0.45,3,3,1,286,1
0.0798844990361,0.094639849419,0.0730623861092,0.275144813157,0.7,0.45,2,-1,0,288,1
0.0766218247918,0.0587290499846,1.05089038276,0.304626432607,0.0730000000002,0.45,0,2,-1,288,1
0.120450193076,0.0237256001329,1.01180346715,0.217367052696,0.432,0.45,2,2,2,289,1
0.0711333893325,0.0183120227317,0.0753819121998,1.00755294809,0.5,0.45,3,3,1,290,1
0.363385400043,1.07113878956,0.157665284107,0.371406030597,0.673,0.45,1,1,1,291,1
1.04122773628,0.10026557715,0.119965751127,0.288738430079,0.587,0.45,0,0,1,292,1
0.178658224466,0.0304946999371,0.0732157439895,1.02621092393,0.61,0.45,3,3,1,293,1
1.11104167777,0.0193269073274,0.0639688659149,0.217740574283,0.523,0.45,0,0,1,294,1
0.467893087343,0.229465600582,0.262900250174,0.315968828693,0.7,0.45,1,-1,0,296,1
0.519693795499,1.03552221931,0.119449961755,0.234180226569,0.217,0.45,3,1,-1,296,1
0.381773665057,0.0974291348211,1.02441304971,0.398812340532,0.543,0.45,2,2,1,297,1
0.461808756648,0.611010739326,0.151508506107,0.323890736178,0.7,0.45,1,-1,0,299,1
0.447129014031,1.04415478465,0.14966182979,0.291611130693,0.0490000000002,0.45,2,1,-1,299,1
0.527678319099,1.03174454065,0.0573255749663,0.137766837506,0.353,0.45,0,1,-1,300,1
0.258544135766,0.0242673938446,1.12133614691,0.192433737648,0.514,0.45,2,2,1,301,1
0.41947973259,0.0390843339392,0.109234094139,1.07025776319,0.527,0.45,3,3,1,302,1
0.473798019649,1.10432130356,0.0704185183082,0.312457030627,0.519,0.45,1,1,1,303,1
1.1187515854,0.0621370905276,0.0859246352521,0.320193959222,0.485,0.45,0,0,1,304,1
0.208262137929,0.0332839622845,0.157432368463,1.02391574863,0.391,0.45,3,3,2,305,1
1.02708812363,0.0315069170951,0.0569046992208,0.313036069655,0.348,0.45,0,0,2,306,1
0.385147040249,1.06983986402,0.0520307809243,0.345950924519,0.403,0.45,1,1,2,307,1
0.205537388545,0.0489935760874,1.00595357002,0.341781082157,0.262,0.45,2,2,2,308,1
0.237587525529,0.0252305233971,0.044730852571,1.02109867613,0.248,0.45,0,3,-1,309,1
0.161265597896,0.0235249777525,1.15640242953,0.553265260277,0.515,0.45,2,2,1,310,1
0.366016508421,1.11526016332,0.189785236829,0.120184304564,0.45,0.45,1,1,1,311,1
0.293899131913,0.0901424884768,0.0328369731518,1.05004913059,0.48,0.45,3,3,1,312,1
0.458361746216,0.0833209422408,0.0545940177737,1.08646378523,0.53,0.45,2,3,-1,313,1
0.68279400756,1.00568462358,0.181919685295,0.132446598257,0.576,0.45,0,1,-1,314,1
0.387890717059,1.08444017537,0.0666033862864,0.104281786316,0.599,0.45,1,1,1,315,1
0.335795282759,0.146980306018,0.300616285228,0.400271471747,0.7,0.45,3,-1,0,317,1
0.345870700324,0.150497817786,0.295263297998,1.12655974228,0.0500000000002,0.45,1,3,-1,317,1
1.15224519887,0.0326144467291,0.0645303681934,0.0312568186647,0.389,0.45,0,0,2,318,1
0.359115670867,0.133871314224,0.159065624073,1.06973340254,0.467,0.45,3,3,1,319,1
1.13671608798,0.144308809785,0.0642257357607,0.0681051305798,0.417,0.45,0,0,2,320,1
0.345359900404,1.07660083643,0.0598303964908,0.181118413141,0.515,0.45,2,1,-1,321,1
0.165015495645,0.0316728829736,0.0550938790358,1.050834315,0.536,0.45,3,3,1,322,1
0.118121275148,0.0246780431674,1.00937839394,0.274698787576,0.657,0.45,2,2,1,323,1
1.00823420898,0.116121779196,0.130167498658,0.247968307211,0.634,0.45,1,0,-1,324,1
0.150732715962,0.0596645424859,0.12377593718,0.0913460122986,0.7,0.45,2,-1,0,326,1
1.19405242309,0.165089729296,0.156583474957,0.0544631883944,0.419,0.45,0,0,2,326,1
0.450102300459,1.02506631396,0.121589882451,0.108005638198,0.398,0.45,1,1,2,327,1
0.516065783965,0.179167928486,0.071148840152,1.03672765619,0.457,0.45,3,3,1,328,1
1.11726203642,0.033253456444,0.0430540497669,0.287203928528,0.433,0.45,0,0,2,329,1
0.230780087033,0.0243611813542,0.0394910751053,1.00725677258,0.448,0.45,3,3,2,330,1
0.607773287515,1.0226260641,0.0413784413439,0.176579654208,0.529,0.45,1,1,1,331,1
0.219168507614,0.0596663399961,1.03555415499,0.14627355162,0.429,0.45,2,2,2,332,1
0.387540241765,0.141199014795,0.0391879707337,1.08176461191,0.492,0.45,3,3,1,333,1
0.318474785821,0.0701268436463,1.10924491886,0.189022746726,0.646,0.45,2,2,1,334,1
0.355428662917,1.01689590953,0.0551221385963,0.115633974355,0.462,0.45,1,1,1,335,1
1.08518241135,0.0883121220868,0.0547097391009,0.156239821606,0.377,0.45,0,0,2,336,1
0.248802684106,0.0312376803372,1.00448499701,0.121129112657,0.332,0.45,2,2,2,337,1
1.0474407386,0.0664122837804,0.109422621131,0.141069951979,0.348,0.45,0,0,2,338,1
0.388682739741,1.06292623635,0.226499665838,0.136419727945,0.348,0.45,1,1,2,339,1
0.144438528889,0.031448015083,0.488851356111,1.0036006074,0.419,0.45,3,3,2,340,1
1.0800544636,0.0312693428757,0.0325012790271,0.253253990229,0.404,0.45,0,0,2,341,1
0.274802225273,0.0355189010852,0.0313572079105,1.0821885753,0.475,0.45,3,3,1,342,1
0.757827674239,1.00795237052,0.0480695386943,0.142924476714,0.535,0.45,1,1,1,343,1
0.0661131063078,0.0198701150574,1.0178386566,0.184897689841,0.429,0.45,2,2,2,344,1
0.40942740075,1.04287647552,0.0800287488084,0.150575820816,0.446,0.45,1,1,2,345,1
1.04906612882,0.0314959320505,0.0532002102376,0.156377065423,0.401,0.45,0,0,2,346,1
0.055632398881,0.0946748664769,1.00938895452,0.146875060974,0.438,0.45,2,2,2,347,1
0.0934057168155,0.0334172926096,0.0457857072783,1.00735262218,0.494,0.45,3,3,1,348,1
0.216381111766,0.0314833923013,1.01294396134,0.269891194301,0.509,0.45,2,2,1,349,1
0.481014780865,1.05226121301,0.0660494779686,0.191837820341,0.548,0.45,1,1,1,350,1
1.0238091591,0.0251341081047,0.0418501818956,0.173661276499,0.356,0.45,0,0,2,351,1
0.0631568141212,0.0244831174142,1.06483199266,0.0689864252482,0.341,0.45,3,2,-1,352,1
1.04637985259,0.0250788859301,0.0585896730202,0.210586019247,0.488,0.45,0,0,1,353,1
1.20314911195,0.0268323696248,0.107830721296,0.271188007965,0.626,0.45,1,0,-1,354,1
0.0732588331349,0.0418488366871,0.0635988233959,1.04470227805,0.691,0.45,3,3,1,355,1
0.347910187317,1.12963297425,0.0416710793979,0.172228787843,0.624,0.45,1,1,1,356,1
0.0839319824416,0.0315468684973,1.08378871189,0.17844040154,0.472,0.45,2,2,1,357,1
0.0839229086703,0.031266411448,0.0314289942912,1.025759428,0.471,0.45,3,3,1,358,1
0.0880864447436,0.0525506220617,1.01105493829,0.315978158169,0.675,0.45,2,2,1,359,1
0.382637267716,0.101019708725,0.0464104439672,0.15672038747,0.7,0.45,0,-1,0,361,1
1.127122172,0.0731012519059,0.0465133880308,0.16707649174,0.0640000000002,0.45,2,0,-1,361,1
0.19994468178,1.04513968954,0.179239444302,0.229451045915,0.576,0.45,1,1,1,362,1
1.22414176593,0.0238487515763,0.147808459371,0.209568956208,0.508,0.45,0,0,1,363,1
0.0392250334264,0.0201366489958,0.0608781879143,1.11516614019,0.515,0.45,3,3,1,364,1
0.157900260878,0.524177743533,0.139042679762,0.312865583164,0.7,0.45,1,-1,0,366,1
0.152076466052,1.01549135138,0.126506392593,0.268220451665,0.0540000000002,0.45,3,1,-1,366,1
1.03650687662,0.140503197359,0.0404406064707,0.0927048580577,0.662,0.45,0,0,1,367,1
0.344662184696,1.07946644574,0.0656736184947,0.184399450941,0.493,0.45,1,1,1,368,1
0.0778049481448,0.0552331166896,1.0131681688,0.145442307588,0.38,0.45,2,2,2,369,1
1.09778604884,0.0191808399534,0.0239011571767,0.0740818270541,0.692,0.45,0,0,1,370,1
0.0484567318521,0.0226705990839,0.247170811175,0.0866882620746,0.7,0.45,2,-1,0,372,1
0.0541177020104,0.0233501008239,0.0454868367207,0.31234787494,0.7,0.45,3,-1,0,373,1
0.0532119230994,0.0233684709555,0.0400389951549,1.05739058267,0.0820000000002,0.45,2,3,-1,373,1
1.17644485354,0.0236080241075,0.0865508008827,0.112069345291,0.659,0.45,0,0,1,374,1
0.0688121758219,0.0234550237052,0.0593882111571,1.01890437427,0.692,0.45,3,3,1,375,1
0.253467463395,0.123223555481,0.0524513234595,0.0233379204468,0.7,0.45,1,-1,0,377,1
0.063372903846,0.0413747545567,0.0474942839233,1.04217068757,0.692,0.45,3,3,1,377,1
0.178045665037,0.101615050631,0.0469420844525,0.0416281743015,0.7,0.45,0,-1,0,379,1
0.105357964036,1.06337683907,0.0352610818393,0.0294721739662,0.685,0.45,1,1,1,379,1
1.18436001419,0.0268952023695,0.025269745208,0.0378115862316,0.525,0.45,0,0,1,380,1
0.105705701344,0.0191577380365,1.01130748572,0.0264815648747,0.653,0.45,2,2,1,381,1
0.42947209051,0.536817191978,0.0337450324754,0.0208216518013,0.7,0.45,1,-1,0,383,1
0.0578448827378,0.0315732351283,0.0314905103063,0.0614892214213,0.7,0.45,2,-1,0,384,1
0.0599129424105,0.0312729015241,0.135551715907,0.0237413166789,0.7,0.45,3,-1,0,385,1
0.453653736391,0.237601399601,0.156048829112,0.328395327232,0.7,0.45,2,-1,0,386,1
1.0960030511,0.200316033468,0.170160023918,0.253371867973,0.543,0.45,0,0,1,386,1
0.343337087981,0.926187747254,0.115621010532,0.204116393329,0.7,0.45,1,-1,0,388,1
0.314391973096,0.113187880235,0.076012071243,0.842789368472,0.7,0.45,3,-1,0,389,1
1.07696696285,0.072103304458,0.0512542557004,0.133791594723,0.57,0.45,0,0,1,389,1
0.120518268163,0.0188455884409,0.136010725927,1.00713582248,0.606,0.45,3,3,1,390,1
0.351430578208,1.04108591712,0.0360864125446,0.193960333107,0.547,0.45,1,1,1,391,1
1.27179336305,0.0392081030528,0.0318273194078,0.238560190633,0.525,0.45,0,0,1,392,1
0.128973772225,0.0261289159235,1.00166232089,0.271518739098,0.698,0.45,2,2,1,393,1
1.0966185185,0.0237155421561,0.0484692504832,0.159000859423,0.438,0.45,1,0,-1,394,1
0.0510691013389,0.0202156481779,0.97100674473,0.294624942683,0.7,0.45,2,-1,0,396,1
0.0528165263501,0.0200820658779,1.06255844057,0.310493532188,0.0100000000002,0.45,3,2,-1,396,1
0.123962706744,0.0548907718577,1.01751657475,0.208513164587,0.578,0.45,2,2,1,397,1
1.10963882098,0.0233270723217,0.0552948137795,0.150036735544,0.44,0.45,0,0,2,398,1
0.050337468215,1.03952408393,0.116602415091,0.126593613961,0.512,0.45,1,1,1,399,1
0.0547690234117,0.0156566650477,0.114603349837,0.597824874554,0.7,0.45,3,-1,0,401,1
0.118041665374,1.02188784468,0.0442328936447,0.281074744883,0.649,0.45,1,1,1,401,1
1.2412386364,0.0319575943115,0.042629598857,0.137076991416,0.462,0.45,0,0,1,402,1
0.0383407053597,0.0312886130803,0.0471583679915,1.06855418713,0.519,0.45,3,3,1,403,1
1.03404827829,0.0312538165807,0.0398066855163,0.194888581902,0.563,0.45,0,0,1,404,1
0.0881564076774,0.0312503381367,1.00818396441,0.175437423113,0.644,0.45,2,2,1,405,1
0.0922598783918,1.01125504472,0.0312904785504,0.141115272574,0.643,0.45,1,1,1,406,1
0.092464870532,0.025429047284,1.01082233878,0.258048190081,0.566,0.45,2,2,1,407,1
0.0987480635803,0.0245604819373,0.0240209447844,1.01079892681,0.495,0.45,3,3,1,408,1
0.109892200936,0.0241366074291,0.741577147878,0.440873921913,0.7,0.45,2,-1,0,410,1
1.08774015826,0.0181601630397,0.0565574563442,0.152508163024,0.495,0.45,0,0,1,410,1
0.0838761865155,1.00389727082,0.0896476185453,0.32169313135,0.453,0.45,1,1,1,411,1
0.0905678134411,0.017194108073,1.01225116101,0.252304134874,0.291,0.45,3,2,-1,412,1
1.12616046312,0.0182441746204,0.0920038806106,0.182362737056,0.44,0.45,0,0,2,413,1
0.0477857930202,0.0170133042742,0.0740421911634,1.02164499217,0.561,0.45,3,3,1,414,1
1.08501625734,0.0159717844885,0.0275265406118,0.0671323661434,0.511,0.45,1,0,-1,415,1
0.012401231078,0.0158527271709,0.982884675669,0.448454272688,0.7,0.45,2,-1,0,417,1
0.0120982971794,0.0156634616215,0.0325245269461,1.09576978542,0.576,0.45,3,3,1,417,1
0.0154906535009,0.0228348244831,0.630156407237,0.0312572782401,0.7,0.45,2,-1,0,419,1
0.0175349621715,0.022092230978,1.00880681858,0.031256281947,0.0350000000002,0.45,1,2,-1,419,1
0.43207880301,1.09965164347,0.18691270686,0.192483051062,0.432,0.45,0,1,-1,420,1
0.0521340254584,0.0174995101208,1.03863436446,0.120414338905,0.527,0.45,2,2,1,421,1
0.213424293257,0.0189794690984,0.0633257116485,1.10466633087,0.493,0.45,3,3,1,422,1
0.457830003324,1.09940991801,0.0396011513392,0.305267344626,0.544,0.45,1,1,1,423,1
1.17541858686,0.0392241914408,0.0391557627153,0.222298060294,0.407,0.45,0,0,2,424,1
0.0402212038338,0.0366137964543,0.181746386396,1.05961058312,0.543,0.45,3,3,1,425,1
0.235745731322,0.0382450393242,0.0543552490698,1.12801714693,0.507,0.45,0,3,-1,426,1
1.24806287139,0.0389951463536,0.0334390444498,0.104854869845,0.611,0.45,1,0,-1,427,1
0.351267358139,0.239742916909,0.156005577538,0.296230937187,0.7,0.45,3,-1,0,429,1
0.492615307003,0.32807966524,0.24396710945,1.11147810438,0.152,0.45,2,3,-1,429,1
1.01670043317,0.0997461092534,0.0576605022588,0.219612233604,0.414,0.45,1,0,-1,430,1
0.0720169067181,0.0353996178819,0.588729627862,0.106930377007,0.7,0.45,2,-1,0,432,1
0.318933656415,1.23358706162,0.116032211485,0.0399481215056,0.625,0.45,0,1,-1,432,1
0.27306461093,0.0316272603407,1.01119836681,0.0153634356176,0.53,0.45,2,2,1,433,1
0.323537265813,0.0670581573856,0.141088238107,1.12980433562,0.571,0.45,3,3,1,434,2
0.391139607854,1.00791381389,0.102106972031,0.240647587435,0.536,0.45,1,1,1,435,2
1.15344817572,0.0793108942374,0.0491906966532,0.175799368859,0.493,0.45,0,0,1,436,2
0.262793010695,0.0560477851894,1.02964791849,0.299066700189,0.375,0.45,2,2,2,437,2
1.14819594257,0.0312430987647,0.0489310918786,0.119201032781,0.461,0.45,0,0,1,438,2
0.634733893234,1.13300673338,0.212713700575,0.155520980875,0.556,0.45,1,1,1,439,2
0.10274123325,0.0313017343922,1.00507738781,0.223433904529,0.455,0.45,2,2,1,440,2
0.217920483441,0.0312539919386,0.0314092976056,1.07191530411,0.328,0.45,3,3,2,441,2
0.620118233142,1.01032674668,0.0313383844637,0.198994871415,0.336,0.45,2,1,-1,442,2
0.462896973219,1.13916766953,0.0312592211058,0.204657665395,0.36,0.45,1,1,2,443,2
0.276661919371,0.0622146619677,0.0604503468133,1.02196844183,0.468,0.45,3,3,1,444,2
1.12128063662,0.0765737598829,0.0333437864739,0.231459933384,0.503,0.45,0,0,1,445,2
0.174270050383,0.0262315555997,0.0427730765659,1.07481079292,0.527,0.45,3,3,1,446,2
1.09847873264,0.0238856520486,0.0316790541831,0.261950993787,0.414,0.45,0,0,2,447,2
0.642333588545,1.14284187949,0.0508752735444,0.320758134994,0.689,0.45,1,1,1,448,2
0.282835786739,0.0735466655432,1.07262032004,0.355478280904,0.566,0.45,2,2,1,449,2
1.15564092177,0.0290264128652,0.0164351842302,0.1847411544,0.428,0.45,1,0,-1,450,2
1.06363175784,0.0112598971109,0.0156599558656,0.170892067759,0.5,0.45,0,0,1,451,2
0.122454003827,0.00918510971047,1.03721095596,0.238544547895,0.495,0.45,2,2,1,452,2
1.08030337034,0.00995891334408,0.0234888497855,0.102863963835,0.495,0.45,0,0,1,453,2
0.261015126503,0.00855123313734,0.023440565856,1.06233960707,0.566,0.45,3,3,1,454,2
0.552558201204,1.00375396821,0.0234378831344,0.219997986633,0.535,0.45,1,1,1,455,2
0.24994418267,0.0321327968771,0.0234375447462,1.00661368819,0.527,0.45,3,3,1,456,2
0.254117360033,0.0312997990662,1.13742756632,0.647823868694,0.58,0.45,2,2,1,457,2
0.0989849192513,0.0518715257428,0.279390720609,1.110757265,0.635,0.45,3,3,1,458,2
0.0940873106083,0.153005189797,1.1385643703,0.467221168013,0.7,0.45,2,-1,0,460,2
0.0940873106083,0.153005189797,1.1385643703,0.467221168013,0.00100000000025,0.45,0,2,-1,460,2
0.415231246014,1.08948308341,0.338037423031,0.280877985936,0.694,0.45,1,1,1,461,2
1.02931050611,0.0311079625682,0.199639539245,0.250775113213,0.595,0.45,0,0,1,462,2
0.0871881966113,0.00678840320217,1.06651563794,0.134096171982,0.44,0.45,2,2,2,463,2
1.09896989597,0.0143305340106,0.125468602159,0.206870879128,0.356,0.45,1,0,-1,464,2
0.21612285696,0.0140816704754,0.147270446881,1.11380632339,0.508,0.45,3,3,1,465,2
1.25936973161,0.0153903672036,0.0334668575673,0.401222780342,0.414,0.45,0,0,2,466,2
0.343835074,0.0144974485472,0.0241144899794,1.07677299254,0.547,0.45,3,3,1,467,2
0.742132672984,1.1424369252,0.0235203400748,0.284000328305,0.524,0.45,1,1,1,468,2
0.280774845016,0.00782637329137,1.00722912652,0.221053757447,0.381,0.45,2,2,2,469,2
0.289285874629,0.0547526254889,0.117453717229,1.05312095207,0.498,0.45,3,3,1,470,2
1.0400909919,0.146475198464,0.0517968704414,0.244993221836,0.43,0.45,0,0,2,471,2
0.790313479083,1.04128050831,0.160169773776,0.344754712428,0.474,0.45,1,1,1,472,2
0.374819424667,0.0744528143315,1.0396407319,0.279914980401,0.31,0.45,2,2,2,473,2
1.15267082327,0.00871571212859,0.0312715375621,0.287389759802,0.44,0.45,0,0,2,474,2
0.410467045172,0.00648191508272,1.12612270635,0.240987566937,0.5,0.45,2,2,1,475,2
0.448842485674,1.03244758636,0.0689190606519,0.0934960102071,0.63,0.45,1,1,1,476,2
0.202391731243,0.00489198154306,0.0746568374129,1.02978213781,0.581,0.45,3,3,1,477,2
0.518412012969,1.03860764975,0.0495889828259,0.177284452765,0.551,0.45,1,1,1,478,2
1.00365106687,0.022992904916,0.0563584357056,0.170832012572,0.611,0.45,0,0,1,479,2
0.389207398155,0.1205135919,0.256770501224,1.03765695302,0.586,0.45,3,3,1,480,2
0.267693096696,0.0374239670803,1.06867915154,0.517096290304,0.559,0.45,2,2,1,481,2
0.331663717249,0.0419351483229,0.0542553317424,1.009463693,0.596,0.45,3,3,1,482,2
1.11580256884,0.0126242836312,0.0519359054335,0.245144217366,0.528,0.45,0,0,1,483,2
0.62878849987,1.08862199972,0.0509953838247,0.294515733639,0.459,0.45,1,1,1,484,2
0.272202026593,0.0187237854369,1.13393161835,0.197033189762,0.319,0.45,2,2,2,485,2
1.17040234109,0.00996354108948,0.0390836077986,0.197829701207,0.4,0.45,0,0,2,486,2
0.317139553039,0.0626415182472,1.04451625383,0.228767213413,0.665,0.45,2,2,1,487,2
0.535853163584,1.06925330122,0.0727868837559,0.210304661753,0.508,0.45,1,1,1,488,2
0.194042775841,0.014158332223,0.14393020631,1.01665047931,0.557,0.45,3,3,1,489,2
0.212565982707,0.0162907399701,1.02952941727,0.55929957212,0.662,0.45,2,2,1,490,2
0.400132686189,0.00882105723246,0.0470703753234,1.18665556868,0.628,0.45,3,3,1,491,2
0.458614845762,1.06042514396,0.046894550443,0.362378101489,0.573,0.45,1,1,1,492,2
1.01332829649,0.0564777195881,0.0468773279966,0.296676875334,0.557,0.45,0,0,1,493,2
0.258838142491,0.00984194137919,0.0671517836526,1.09328096727,0.532,0.45,3,3,1,494,2
0.47819788089,1.00313713131,0.0418631188049,0.430588513322,0.47,0.45,1,1,1,495,2
1.08462670053,0.0234552750131,0.0393207227022,0.322957244316,0.536,0.45,0,0,1,496,2
0.0506819762225,0.105594240428,0.157472758872,0.326512718118,0.7,0.45,2,-1,0,498,2
0.0564127362741,1.0198042291,0.147914090408,0.324470180414,0.0680000000003,0.45,1,1,2,498,2
0.186886293503,0.0149714641621,1.04876555376,0.319386993514,0.398,0.45,2,2,2,499,2
1.03017495337,0.0266933661105,0.0651346812245,0.324047062051,0.342,0.45,0,0,2,500,2
0.203133287468,0.00357082978322,0.0626924287903,1.02724672306,0.664,0.45,3,3,1,501,2
1.16007912669,0.000746411883773,0.0493490925734,0.286813756578,0.464,0.45,0,0,1,502,2
0.552389193024,1.16166677745,0.0566328458956,0.336778722688,0.649,0.45,1,1,1,503,2
0.386237027962,0.0159076519398,0.0719822687346,1.00163770869,0.565,0.45,3,3,1,504,2
0.219545193337,0.0156412993008,1.07457373926,0.349000421922,0.664,0.45,2,2,1,505,2
0.23441978728,0.0156269884994,0.0414603778675,1.20286659926,0.641,0.45,3,3,1,506,2
0.572656162921,0.528162721733,0.718211860233,0.203334127147,0.7,0.45,2,-1,0,508,2
0.582693447635,1.01794652256,0.563122278914,0.173389522576,0.0630000000003,0.45,1,1,2,508,2
1.06937761806,0.00782077391918,0.0321761179441,0.138780813027,0.327,0.45,0,0,2,509,2
0.270213853475,0.0892121255375,1.05545810623,0.252975846637,0.505,0.45,2,2,1,510,2
1.12190508733,0.0278649572153,0.0757001573998,0.205175894062,0.421,0.45,0,0,2,511,2
1.15977236551,0.0136453342998,0.193058316324,0.161367016811,0.495,0.45,1,0,-1,512,2
0.076907986139,0.00964697856699,1.03664385431,0.175873367231,0.566,0.45,2,2,1,513,2
0.0572790116363,0.0079711569899,0.043279738441,1.14396904289,0.563,0.45,3,3,1,514,2
0.478075401598,1.05355980774,0.097490328585,0.363942398007,0.532,0.45,1,1,1,515,2
0.0953677680957,0.035485805036,0.795074476685,0.588086621175,0.7,0.45,3,-1,0,517,2
0.0960134547352,0.0351998870098,1.08555901856,0.599034905249,0.0230000000003,0.45,0,2,-1,517,2
0.209066923145,0.00574815189961,0.0312624209636,1.12342877703,0.515,0.45,3,3,1,518,2
0.505927623635,1.02397630878,0.0220007255969,0.520773993257,0.611,0.45,1,1,1,519,2
1.3178754906,0.0234587577783,0.0390658432151,0.263786329163,0.489,0.45,0,0,1,520,2
0.0839053801696,0.0218999969989,1.08349259808,0.177470595792,0.35,0.45,2,2,2,521,2
1.13054789509,0.0232628424356,0.0349277522616,0.249368667094,0.344,0.45,1,0,-1,522,2
0.250839064018,0.10205711203,0.273835394984,0.210642923449,0.7,0.45,2,-1,0,524,2
1.18714178115,0.0179866550212,0.123014744271,0.299885043079,0.558,0.45,0,0,1,524,2
0.0582780345694,0.00907505999617,0.0870954795031,1.01217245722,0.512,0.45,3,3,1,525,2
0.222807991918,0.0079013252995,1.06240445418,0.28733598702,0.667,0.45,2,2,1,526,2
0.065371217083,0.00782357080514,0.0610889017534,1.09713104933,0.638,0.45,3,3,1,527,2
1.07952904156,0.00781433046449,0.0414440939765,0.249961742481,0.518,0.45,0,0,1,528,2
0.389098817998,1.02369513058,0.0530283107029,0.271397229779,0.497,0.45,1,1,1,529,2
0.0752618012679,0.00790523098917,0.118847145226,1.16870112868,0.515,0.45,3,3,1,530,2
0.134763352905,0.0083208304545,1.00338777556,0.341058706753,0.539,0.45,2,2,1,531,2
0.667131864667,1.04553658163,0.161545723447,0.281001655531,0.563,0.45,1,1,1,532,2
1.0621876622,0.00802411827017,0.0685033405009,0.130070219735,0.422,0.45,0,0,2,533,2
0.0817469879459,0.0078178751581,0.970091465219,0.497137261409,0.7,0.45,2,-1,0,535,2
1.07952459187,0.00830472826307,0.128732847994,0.0586947694904,0.501,0.45,0,0,1,535,2
0.225250844466,1.04957182906,0.0836063291116,0.142558105569,0.467,0.45,1,1,1,536,2
0.0600150288599,0.0156968728868,0.0697550427923,1.1547207485,0.422,0.45,3,3,2,537,2
0.388991620023,1.09785873989,0.166510516233,0.312141539143,0.434,0.45,1,1,2,538,2
0.0653027786544,0.00792092070999,1.02375720362,0.141351216958,0.399,0.45,2,2,2,539,2
0.181994877925,0.00808287329225,0.155984412271,1.21490310106,0.45,0.45,3,3,1,540,2
1.13797944721,0.00784815523864,0.0505595042252,0.226397379332,0.402,0.45,0,0,2,541,2
0.231411175046,0.166264580777,0.108413213322,1.0045405713,0.529,0.45,3,3,1,542,2
0.436629239376,1.06114987602,0.149285277474,0.315224401832,0.564,0.45,1,1,1,543,2
1.31581981139,0.0419755478289,0.0350173418797,0.0872733172296,0.575,0.45,0,0,1,544,2
0.0903268290785,0.0144976267647,1.06148335582,0.270174394749,0.445,0.45,2,2,2,545,2
1.08784242442,0.0155110054215,0.0419848800713,0.253131707711,0.48,0.45,1,0,-1,546,2
0.0594979521719,0.0264809044907,1.06573796365,0.266008812235,0.535,0.45,2,2,1,547,2
1.14032077769,0.025691249527,0.134768687732,0.197146487241,0.453,0.45,0,0,1,548,2
0.0678838615926,0.0253080833957,0.440862632916,1.01358440256,0.462,0.45,3,3,1,549,2
1.02689947967,0.0245526255268,0.0965396953684,0.250801360686,0.489,0.45,0,0,1,550,2
0.0780966476885,1.09502358381,0.362106374288,0.213206401283,0.585,0.45,1,1,1,551,2
0.0784164919146,0.112614103948,0.353791953809,1.09065050162,0.629,0.45,3,3,1,552,2
0.19235864895,1.0034496395,0.126989023562,0.366033806959,0.54,0.45,2,1,-1,553,2
0.112939261241,0.0235860610538,0.285821696201,1.08207380612,0.539,0.45,3,3,1,554,2
1.12313441089,0.0234528192317,0.0571604767205,0.354393011734,0.5,0.45,0,0,1,555,2
0.0717431036091,0.0234384640487,0.333403430706,0.246741375907,0.7,0.45,2,-1,0,557,2
0.0706258780233,1.02027915529,0.182203933855,0.181219651582,0.528,0.45,1,1,1,557,2
0.149981715386,0.0236648109432,1.05227124224,0.383162457027,0.581,0.45,2,2,1,558,2
1.04500122565,0.0234700829659,0.130472161345,0.0844629233836,0.455,0.45,0,0,1,559,2
0.0419818633906,0.350948876431,0.226732386263,0.152598368825,0.7,0.45,1,-1,0,561,2
0.0481009639207,1.02930269576,0.149010381952,0.151142596079,0.0350000000003,0.45,0,1,-1,561,2
0.210520330258,0.0526024340439,0.295246435096,1.02157723929,0.506,0.45,3,3,1,562,2
0.544696017487,1.10040827057,0.0598775516869,0.148052363243,0.554,0.45,1,1,1,563,2
0.0438990271722,0.0417294739013,0.192142731578,1.16523675245,0.527,0.45,3,3,1,564,2
0.0484640691302,0.0320084265499,1.13705158718,0.226181604921,0.51,0.45,2,2,1,565,2
0.0458823266518,0.0313194491975,0.120659753699,1.12119181254,0.578,0.45,3,3,1,566,2
0.0819203493457,1.04922562306,0.224015144868,0.152690385132,0.628,0.45,1,1,1,567,2
1.21996190448,0.0594748602483,0.141041174643,0.104430683883,0.397,0.45,0,0,2,568,2
0.107523971066,0.0461190778414,1.02876101629,0.179586577941,0.546,0.45,2,2,1,569,2
0.850687551356,1.01916232394,0.102082426971,0.0779701462502,0.631,0.45,1,1,1,570,2
0.0353768175434,0.28757983876,1.01231855061,0.0713320927862,0.563,0.45,2,2,1,571,2
1.06961919562,0.0211467297027,0.0920397188592,0.0705178448867,0.379,0.45,0,0,2,572,2
0.082113792793,0.0195552689273,1.01835982443,0.0681502630316,0.38,0.45,3,2,-1,573,2
0.562275659183,0.785703018133,0.299439891389,0.225898421689,0.7,0.45,0,-1,0,575,2
1.0957395104,0.183795607301,0.159204143174,0.157452109135,0.11,0.45,1,0,-1,575,2
0.209395992335,0.0783071786504,0.131446016668,1.06081423557,0.421,0.45,3,3,2,576,2
0.0663249405947,0.0384119204245,0.858116597883,0.333277884827,0.7,0.45,2,-1,0,578,2
0.577981215664,0.0206750301565,0.171062420437,0.0810030676123,0.7,0.45,3,-1,0,579,2
0.193354112179,0.0188447707923,0.809123786896,1.20591210597,0.138,0.45,0,3,-1,579,2
0.0821780278927,0.066548277839,1.06721724926,0.764166551433,0.524,0.45,2,2,1,580,2
0.0383637947943,1.04515366158,0.143192341136,-0.0137310884257,0.433,0.45,1,1,2,581,2
0.0607262232186,0.0442333142123,1.04783167846,0.301564360021,0.512,0.45,2,2,1,582,2
1.04181555523,0.086457015142,0.1660703572,-0.0161719673715,0.478,0.45,0,0,1,583,2
0.0235508705373,1.04942415245,0.134152816701,-0.0335613324944,0.611,0.45,1,1,1,584,2
0.0267817141052,0.0313613403286,0.257125563051,1.02438577664,0.66,0.45,3,3,1,585,2
0.03658000393,1.00187897227,0.0680545074424,0.00991763062799,0.665,0.45,1,1,1,586,2
1.06588366114,0.0314779492892,0.0323669376975,0.00723607107753,0.466,0.45,0,0,1,587,2
0.195500173739,0.199349178394,0.391712869942,0.775177504663,0.7,0.45,3,-1,0,589,2
0.277184304581,0.143205122785,0.464952900057,0.0865261307551,0.7,0.45,2,-1,0,590,2
0.202146625849,0.0635834233741,0.15607369516,1.00191479686,0.641,0.45,3,3,1,590,2
0.38709304165,1.0746118281,0.472347419761,0.0421360414232,0.522,0.45,1,1,1,591,2
1.00744099342,0.442788104043,0.134479082817,0.109040685193,0.438,0.45,0,0,2,592,2
0.107964370055,0.0635046822628,1.03311180347,0.0178875922792,0.682,0.45,2,2,1,593,2
1.06678229213,0.0285582579648,0.0737107738996,-0.0191926353301,0.556,0.45,0,0,1,594,2
0.0256916289656,0.298659455735,0.526815934477,0.0523038719663,0.7,0.45,1,-1,0,596,2
0.0284796776697,1.00787634965,0.334032818523,0.056421798791,0.0620000000003,0.45,2,1,-1,596,2
0.610252833522,1.04172374391,0.157110460986,0.0792721530481,0.653,0.45,1,1,1,597,2
0.174341958469,0.0156184664667,1.03447219306,0.0893919906119,0.604,0.45,3,2,-1,598,2
1.11729744959,0.091124179387,0.117514721965,0.0639532746277,0.563,0.45,0,0,1,599,2
0.165966282743,0.0990572876185,0.215617920219,1.00987110508,0.465,0.45,3,3,1,600,2
0.107553544786,0.169062535236,1.010708825,0.0212989678479,0.565,0.45,2,2,1,601,2
0.0389116544063,0.0229223604278,0.422086543213,0.689083982983,0.7,0.45,3,-1,0,603,2
0.041636163691,0.0218458328739,0.500023836443,1.07504073434,0.0180000000003,0.45,1,3,-1,603,2
0.0585407225401,0.0959906522428,1.06527076444,-0.00743997138917,0.413,0.45,2,2,2,604,2
1.02352268531,0.719857165647,0.0756575412092,-0.00882412819718,0.514,0.45,0,0,1,605,2
0.263879102745,0.0159655107284,1.07199529899,0.00622523604222,0.524,0.45,2,2,1,606,2
0.456643031789,1.10652877887,0.0758531766172,0.00756477714917,0.422,0.45,1,1,2,607,2
1.15606496974,0.133702763249,0.103078360399,0.00778555172042,0.437,0.45,0,0,2,608,2
0.253294308938,0.149063271607,1.05099113924,-0.00360897887047,0.44,0.45,3,2,-1,609,2
1.01921233663,0.0431746124811,0.298290120787,0.0154699933146,0.492,0.45,0,0,1,610,2
0.468859527524,1.05360817526,0.35910417006,0.0027437719017,0.631,0.45,1,1,1,611,2
0.190479148167,0.119214198978,0.300604389573,0.482135850112,0.7,0.45,3,-1,0,613,2
0.7222493233,1.09503198454,0.107055483539,0.00902273977317,0.541,0.45,2,1,-1,613,2
0.0570869848109,0.0234523248359,0.134585389661,1.02113017559,0.671,0.45,3,3,1,614,2
0.755665580644,1.03830423379,0.0920501431406,-0.00017766135756,0.513,0.45,1,1,1,615,2
1.22799626898,0.175131412726,0.0654725413862,0.00807828645647,0.52,0.45,0,0,1,616,2
0.468727245042,1.06020427414,0.204537137546,0.00901748283702,0.597,0.45,2,1,-1,617,2
0.0828711639997,2.06737568907,1.1152501656,0.0148735128221,0.0770000000003,0.45,1,1,2,618,2
0.0617708887266,0.1095948164,1.00681601833,-0.0140390969524,0.557,0.45,2,2,1,619,2
1.08413825766,0.13195504125,0.0637937744083,0.00809378514801,0.477,0.45,0,0,1,620,2
0.0494185195311,0.0542933957421,1.0496761372,-0.0185506886221,0.554,0.45,3,2,-1,621,2
1.03859470415,0.206481834325,0.162756083083,-0.00801767843796,0.7,0.45,0,-1,0,623,2
1.03859470415,0.206481834325,0.162756083083,-0.00801767843796,0.00100000000034,0.45,1,0,-1,623,2
0.323373385222,0.0232583333284,0.428813067722,0.292988151826,0.7,0.45,3,-1,0,625,2
0.313175266798,0.0213146734578,0.542202551784,1.0701618796,0.0750000000003,0.45,2,3,-1,625,2
0.230171393237,0.261992795498,0.225123264175,1.13334898393,0.557,0.45,3,3,1,626,2
1.07279371591,0.268621183111,0.185411191773,0.148590828778,0.461,0.45,0,0,1,627,2
0.15740801478,1.01575415778,0.149163624923,0.103189129406,0.676,0.45,1,1,1,628,2
0.123507181859,0.21618955119,0.21502417373,0.13993552878,0.7,0.45,2,-1,0,630,2
1.00991527834,0.235799950218,0.109547591866,0.0863400254723,0.579,0.45,0,0,1,630,2
0.205141179763,1.0603765905,0.162325174424,0.116600071638,0.552,0.45,2,1,-1,631,2
1.00623682198,0.121855423951,0.15791599881,0.0537862623243,0.533,0.45,1,0,-1,632,2
0.238708689024,0.16402783607,0.142342354462,0.102693108162,0.7,0.45,0,-1,0,634,2
0.421673638319,0.2699536232,0.192653558217,0.117919792286,0.7,0.45,3,-1,0,635,2
0.402498723321,0.270637486248,0.237762129521,0.0877981042583,0.7,0.45,2,-1,0,636,2
0.228051697939,0.141254296984,0.267324667316,1.0935476053,0.627,0.45,3,3,1,636,2
1.02814571146,0.147644579844,0.149506193182,0.0578322038191,0.423,0.45,1,0,-1,637,2
0.133033658558,0.0506449005192,0.493574668153,1.00652261711,0.516,0.45,3,3,1,638,2
0.372375705725,1.09683890821,0.123134760419,0.180789548404,0.474,0.45,0,1,-1,639,2
0.467524930882,1.0068618993,0.138917209961,0.142896830449,0.524,0.45,1,1,1,640,2
0.159375159342,0.0294317999525,1.00090866406,0.0932875873401,0.605,0.45,2,2,1,641,2
0.431753442649,0.621332095899,0.113034863647,0.149775312891,0.7,0.45,1,-1,0,643,2
0.385404680264,1.03966874354,0.11376862519,0.145023393378,0.0540000000004,0.45,0,1,-1,643,2
0.114831067732,0.070356324859,1.00826228895,0.123213936635,0.54,0.45,2,2,1,644,2
0.279226870921,0.0351085945983,0.15949074765,1.06636352582,0.559,0.45,3,3,1,645,2
0.149252231488,0.05110000239,1.03705017498,0.265831779217,0.643,0.45,2,2,1,646,2
1.00726126938,0.0279744879516,0.114942407621,0.192893529254,0.655,0.45,0,0,1,647,2
0.131388265346,0.0161064858307,0.26869311655,1.03803724734,0.676,0.45,3,3,1,648,2
1.07192484397,0.0217855690545,0.0907781471429,0.237695381326,0.461,0.45,1,0,-1,649,2
0.208497504371,0.065398489579,0.174426896395,1.07205514207,0.536,0.45,3,3,1,650,2
4.95065412131,3.01846258714,2.99218285675,1.56034131832,0.00400000000036,0.45,0,0,2,651,3
0.451787108248,1.14540128738,0.250782726259,0.288571730851,0.523,0.45,1,1,1,652,3
0.450761951381,0.209889232675,0.214432754089,1.06227769086,0.492,0.45,3,3,1,653,3
0.492540699522,1.05911973596,0.170633134488,0.293630069008,0.425,0.45,2,1,-1,654,3
0.350064440988,0.0957019584746,0.298034863799,1.02958394415,0.531,0.45,3,3,1,655,3
0.467254053588,1.13082738898,0.135005530757,0.280425109712,0.396,0.45,1,1,2,656,3
0.459512549442,1.02761818511,0.141399570221,0.212980837926,0.408,0.45,2,1,-1,657,3
1.15542739009,0.090122330338,0.0413215161109,0.199236200062,0.412,0.45,0,0,2,658,3
0.395457640327,0.12468663896,1.14386610269,0.305278272065,0.384,0.45,2,2,2,659,3
0.854879051656,1.04025663237,0.0927232081421,0.220760993684,0.507,0.45,1,1,1,660,3
1.04321097837,0.0690731888964,0.0610868720323,0.165812029425,0.469,0.45,0,0,1,661,3
0.345152771702,0.0644933494261,0.0958604546736,1.02820024655,0.418,0.45,3,3,2,662,3
1.07119077614,0.132451067457,0.0997906156546,0.225312471951,0.435,0.45,0,0,2,663,3
0.463460085771,1.00649422798,0.124952672703,0.132078343819,0.387,0.45,1,1,2,664,3
0.394203297805,0.244271208274,1.07250547352,0.225204209188,0.339,0.45,2,2,2,665,3
0.307375903366,0.0819719606415,0.0643659267691,0.83575961854,0.7,0.45,3,-1,0,667,3
0.287915817354,0.073728820998,0.0695378858219,1.15061277258,0.0220000000004,0.45,1,3,-1,667,3
0.182591436367,0.0338505199795,0.168816105931,1.12477723824,0.414,0.45,3,3,2,668,3
0.198752944183,0.486018197906,1.02194333884,0.291997625139,0.456,0.45,2,2,1,669,3
0.425353573859,1.07085961776,0.047888879251,0.216555065234,0.302,0.45,1,1,2,670,3
1.15706960236,0.0614787784419,0.0468925984765,0.136704788139,0.272,0.45,0,0,2,671,3
0.266750159373,0.0331444608725,0.776509711671,1.09348198371,0.491,0.45,3,3,1,672,3
1.12761848718,0.0846585336355,0.182572291723,0.35480329407,0.5,0.45,0,0,1,673,3
0.141016052194,0.0459372831116,1.07401228966,0.409083696918,0.407,0.45,2,2,2,674,3
1.1125558945,0.285579588667,0.229339532419,0.174295165498,0.546,0.45,0,0,1,675,3
0.251215023903,0.040764248445,0.324755923538,1.03719795628,0.555,0.45,3,3,1,676,3
0.381673564601,1.08783283105,0.0854263416322,0.275670078427,0.437,0.45,1,1,2,677,3
0.27908285558,0.0597576481289,1.02903818057,0.247705294145,0.344,0.45,2,2,2,678,3
0.344273472081,0.122511701058,0.612090585577,1.03923501034,0.49,0.45,3,3,1,679,3
0.200274301352,0.120268251796,1.09341119627,0.353452660513,0.494,0.45,2,2,1,680,3
0.454530686465,1.17135459197,0.220795187878,0.240890610311,0.444,0.45,1,1,2,681,3
1.06325772709,0.0429038387585,0.210699602914,0.228190875267,0.305,0.45,3,0,-1,682,3
1.2141882041,0.112094038302,0.205951947723,0.210442325667,0.5,0.45,0,0,1,683,3
0.240265710587,0.0308306903374,1.01647789781,0.139157780862,0.54,0.45,1,2,-1,684,3
1.03882908181,0.097077321071,0.0408621428743,0.119095060428,0.537,0.45,0,0,1,685,3
0.171080128533,0.128653542387,1.03057195568,0.098834745363,0.491,0.45,2,2,1,686,3
1.0678994489,0.0779341294943,0.0987617937689,0.0970893939543,0.433,0.45,0,0,2,687,3
0.221879628285,0.0998568207075,1.04273169124,0.124255052561,0.422,0.45,2,2,2,688,3
0.354184570477,0.025827875515,0.270285540953,0.866943081055,0.7,0.45,3,-1,0,690,3
0.696359074094,1.07008396008,0.170713674186,0.11818309334,0.589,0.45,1,1,1,690,3
0.373717336018,0.0532044216612,0.264733651983,1.03201191622,0.582,0.45,3,3,1,691,3
0.24726273054,0.083636413957,0.410975292973,1.04076841988,0.598,0.45,2,3,-1,692,3
1.04526368608,0.0980813627241,0.534311860394,0.0405721431981,0.5,0.45,1,0,-1,693,3
1.25709049224,0.0824644189221,0.169424883203,0.06833001559,0.442,0.45,0,0,2,694,3
0.323398296038,0.217428976176,0.468061161059,1.00860888807,0.605,0.45,3,3,1,695,3
1.00588763774,0.144153130336,0.144133690933,0.09373659831,0.449,0.45,0,0,2,696,3
0.279812755345,1.00329437609,0.710405942106,0.0607403431206,0.437,0.45,1,1,2,697,3
0.326653924115,0.642802790893,1.02573434186,0.12363478877,0.412,0.45,2,2,2,698,3
1.18837138198,0.172227144503,0.0397688460591,0.109650808045,0.494,0.45,0,0,1,699,3
0.165067422139,0.137546322528,1.08938357607,0.124768315183,0.465,0.45,3,2,-1,700,3
0.581153325486,1.18574067746,0.0689968518119,0.0470098903482,0.633,0.45,1,1,1,701,3
0.22475105225,0.31908062105,0.111759852279,0.111284001078,0.7,0.45,2,-1,0,703,3
0.187566736593,0.202588057769,1.08643591928,0.0956539970066,0.148,0.45,3,2,-1,703,3
0.384377331494,1.10662244813,0.146709623557,0.0579759461972,0.445,0.45,2,1,-1,704,3
0.39934269992,1.07727856003,0.0521668750808,0.0485419520636,0.597,0.45,1,1,1,705,3
1.01792753197,0.154758309579,0.0400625087586,0.042221840067,0.43,0.45,0,0,2,706,3
0.406923117161,1.17156978333,0.059200662463,0.0380510604498,0.47,0.45,1,1,1,707,3
0.377158959718,0.126234641915,0.232658210147,1.03845129044,0.629,0.45,3,3,1,708,3
1.08661743435,0.150531142291,0.111800948729,0.0801963890576,0.568,0.45,0,0,1,709,3
0.32534232334,0.343372000393,1.00150521118,0.326618852871,0.605,0.45,2,2,1,710,3
1.07234238665,0.119384619506,0.136888094325,0.0251797332269,0.56,0.45,0,0,1,711,3
0.350404361459,0.205626855145,1.04991393821,0.0160789911736,0.551,0.45,2,2,1,712,3
0.404122875828,0.115897666146,0.422057228125,1.01517676056,0.542,0.45,3,3,1,713,3
0.4102980764,1.0928000649,0.133681459294,0.101560417418,0.512,0.45,1,1,1,714,3
0.269698153264,0.133217143619,1.10966987709,0.0712941142459,0.588,0.45,2,2,1,715,3
0.352442369622,1.04928241964,0.104228030144,0.0290600970673,0.484,0.45,1,1,1,716,3
0.236662118658,0.107462453126,0.442252161795,1.08311511816,0.629,0.45,3,3,1,717,3
1.04720687615,0.0671676618935,0.080461055485,0.278794130689,0.512,0.45,0,0,1,718,3
0.449938916664,1.06166675047,0.137977455094,0.0773610364826,0.492,0.45,1,1,1,719,3
1.1412107598,0.178465626815,0.154767340468,0.0742637039507,0.504,0.45,0,0,1,720,3
0.290042859157,0.119752281336,0.262228471752,1.1137119358,0.529,0.45,3,3,1,721,3
0.203408469421,0.0555960649857,1.07654528721,0.40032942088,0.7,0.45,2,-1,0,723,3
0.203408469421,0.0555960649857,1.07654528721,0.40032942088,0.0050000000004,0.45,0,2,-1,723,3
0.307213275074,0.031836439786,1.01353890775,0.154430705385,0.399,0.45,2,2,2,724,3
0.221440845095,0.02829925634,0.537518389212,1.00460568999,0.576,0.45,3,3,1,725,3
0.471650158507,1.07951369671,0.275795939005,0.421786012886,0.526,0.45,1,1,1,726,3
0.215955222872,0.113677484694,1.00524197901,0.243891701484,0.528,0.45,2,2,1,727,3
0.413150047141,1.02372276754,0.192107968902,0.0507198797426,0.574,0.45,1,1,1,728,3
0.234816538155,0.0529914965961,0.238034715214,1.02763546963,0.548,0.45,3,3,1,729,3
0.218172442357,0.339738038412,0.134654848766,0.408864341723,0.7,0.45,2,-1,0,731,3
0.2213227744,1.09604488725,0.140197799398,0.408591049977,0.0320000000004,0.45,0,1,-1,731,3
0.187424702936,0.0500011404805,1.16011478542,0.180654933348,0.359,0.45,3,2,-1,732,3
1.05914213184,0.0731511882616,0.361305667295,0.360957296212,0.672,0.45,0,0,1,733,3
0.240357342915,1.00647400115,0.321875621163,0.238866035487,0.556,0.45,1,1,1,734,3
1.11542603747,0.227771825041,0.318835395195,0.116083419731,0.554,0.45,0,0,1,735,3
0.282236292092,1.03742848903,0.16140259011,0.0925480481741,0.393,0.45,1,1,2,736,3
0.262405772735,0.111538604845,1.0606768799,0.2065881702,0.355,0.45,3,2,-1,737,3
0.286431177578,0.142070840594,1.15095729684,0.194660431527,0.443,0.45,2,2,2,738,3
0.251332949688,0.0191914652291,0.264715665773,1.05441641949,0.532,0.45,3,3,1,739,3
0.430503788126,0.408133821921,0.413944714066,0.319714605084,0.7,0.45,1,-1,0,741,3
1.22307680034,0.0963284510068,0.382554589535,0.352630030824,0.118,0.45,2,0,-1,741,3
1.03054967146,0.0310438817645,0.22986257641,0.180801496919,0.399,0.45,0,0,2,742,3
0.103079577669,0.00959461023121,1.11022593951,0.114045536674,0.352,0.45,2,2,2,743,3
1.01066330716,0.00976447734385,0.118150321335,0.202730409227,0.389,0.45,1,0,-1,744,3
1.1637475988,0.107031929168,0.144730716118,0.149625567941,0.583,0.45,0,0,1,745,3
0.225148372004,0.0297508360289,0.262934612931,1.1167750544,0.513,0.45,3,3,1,746,3
0.272509088988,0.0303161193275,0.118639996113,0.277943202215,0.7,0.45,0,-1,0,748,3
1.26350905061,0.0293524043148,0.115904931244,0.246837758536,0.101,0.45,3,0,-1,748,3
0.110335958813,0.0302642304316,1.16933773418,0.251221842528,0.467,0.45,2,2,1,749,3
0.512617284481,1.20943250331,0.147810103388,0.219536126278,0.337,0.45,1,1,2,750,3
0.218060769471,0.0705554747207,0.214043294063,1.17928938491,0.396,0.45,3,3,2,751,3
0.353326515203,1.14764882567,0.0991167446809,0.153112268771,0.38,0.45,1,1,2,752,3
0.168170687807,0.00912918510804,1.09899503506,0.300369283064,0.409,0.45,2,2,2,753,3
1.12337263,0.424617258699,0.0996330844898,0.0880328958994,0.532,0.45,0,0,1,754,3
0.423687494002,1.07786983525,0.214595217445,0.0891208247033,0.683,0.45,1,1,1,755,3
1.135637742,0.0659337377949,0.0722992178979,0.10899565728,0.557,0.45,0,0,1,756,3
0.0816002331395,0.099138248104,1.07556956924,0.0632358559448,0.411,0.45,2,2,2,757,3
0.177875737537,0.0359741092804,0.168921802971,1.14193239592,0.412,0.45,3,3,2,758,3
1.02728451209,0.0305633933427,0.0664601404268,0.195997641272,0.343,0.45,0,0,2,759,3
0.620344308424,1.2393464445,0.0687327324559,0.182000009243,0.436,0.45,1,1,2,760,3
0.267929749503,0.0239900313052,1.03940935458,0.152151996793,0.419,0.45,3,2,-1,761,3
0.322224570524,0.0234626200873,1.07466400535,0.584645708799,0.593,0.45,2,2,1,762,3
0.509332942525,1.22945061921,0.225231574123,0.0511677156323,0.519,0.45,1,1,1,763,3
0.176993544304,0.0771665394228,1.06268263655,0.0418607984808,0.457,0.45,2,2,1,764,3
0.274515855546,0.109056573593,0.183923530417,1.15771182339,0.472,0.45,3,3,1,765,3
1.12265726229,0.169554703228,0.0924721367067,0.142586197106,0.404,0.45,0,0,2,766,3
0.114815866755,0.0547737275102,1.06891955574,0.198004272759,0.33,0.45,2,2,2,767,3
1.09397239998,0.0188042411008,0.183967886111,0.132629485129,0.301,0.45,0,0,2,768,3
0.131527795064,0.00844992221234,0.482043911361,1.07675778083,0.489,0.45,3,3,1,769,3
1.10078771223,0.0104318516746,0.0818819006566,0.190149086177,0.396,0.45,1,0,-1,770,3
1.03225911297,0.0104201505929,0.105761720697,0.250481213307,0.422,0.45,0,0,2,771,3
0.134302930229,0.00968123632272,0.198246925795,1.02570473635,0.487,0.45,3,3,1,772,3
0.481614627051,1.02128608032,0.192195994893,0.230682236783,0.482,0.45,1,1,1,773,3
0.148925827828,0.0405145949455,1.01775046836,0.237712436887,0.534,0.45,2,2,1,774,3
0.24830431497,0.0291019535632,1.05524987957,0.0971183200008,0.659,0.45,1,2,-1,775,3
0.146129183126,0.0104288123921,0.653425022523,1.08928332184,0.635,0.45,3,3,1,776,3
0.19350020266,0.00811518449344,1.10443716979,0.148413445156,0.628,0.45,2,2,1,777,3
0.213824983842,0.0121438926679,0.1415929919,1.15945739864,0.617,0.45,3,3,1,778,3
1.1372962435,0.00904203821277,0.182982812885,0.152085580234,0.496,0.45,0,0,1,779,3
0.206731097621,0.00899304479981,1.09982406287,0.172521798657,0.457,0.45,2,2,1,780,3
1.36040153882,0.00911787936306,0.13873382683,0.156819173427,0.522,0.45,0,0,1,781,3
0.338299339865,1.25065582028,0.312617883723,0.106965823519,0.546,0.45,1,1,1,782,3
1.00650904835,0.015626927145,0.238884892258,0.0841807550601,0.608,0.45,0,0,1,783,3
0.0689849500591,0.0156252721902,1.06039510039,0.0504397118492,0.416,0.45,2,2,2,784,3
1.08321055276,0.0156250342914,0.0545766902015,0.148028047095,0.378,0.45,1,0,-1,785,3
0.0702380957102,0.020789473893,1.00003489956,0.717338856305,0.435,0.45,3,2,-1,786,3
0.300625931538,0.0231740374963,1.08138203025,0.156130550173,0.476,0.45,2,2,1,787,3
0.318027808869,0.140076753174,0.2514483429,0.0645134407314,0.7,0.45,3,-1,0,789,3
0.558705947543,1.04743359068,0.243060994631,0.110417128848,0.503,0.45,1,1,1,789,3
0.241084545771,0.435040051226,1.03463821412,0.174959651489,0.507,0.45,2,2,1,790,3
1.03368295871,0.0685574112126,0.176324612557,0.134604520661,0.459,0.45,0,0,1,791,3
0.827994970777,1.20142490746,0.17299009762,0.126198639817,0.583,0.45,1,1,1,792,3
1.12960817662,0.130736539154,0.0477724636516,0.0599528158233,0.561,0.45,0,0,1,793,3
0.229266223388,0.110444920274,1.05448903496,0.214764510183,0.484,0.45,3,2,-1,794,3
1.06461188478,0.189841797339,0.12859516528,0.110192398335,0.539,0.45,0,0,1,795,3
0.575840842188,1.0969412936,0.163191802378,0.111231814355,0.584,0.45,1,1,1,796,3
0.206182464433,0.0765970173282,0.155173330851,1.05900907848,0.507,0.45,3,3,1,797,3
0.283433207268,0.138897431453,0.173318202018,1.1116504955,0.518,0.45,2,3,-1,798,3
1.16589016828,0.0195085381685,0.276158317774,0.0549435700378,0.601,0.45,1,0,-1,799,3
0.231914072292,0.234327130775,0.564550259794,0.293085611977,0.7,0.45,2,-1,0,801,3
0.238143375129,0.245122042058,1.017554919,0.324571349626,0.0740000000004,0.45,3,2,-1,801,3
0.341179064224,1.07614707069,0.155360198706,0.139587118708,0.428,0.45,1,1,2,802,3
1.08478249166,0.118551238389,0.118149746944,0.136192042124,0.452,0.45,0,0,1,803,3
0.137455719366,0.0593322032946,1.05891532417,0.11251857317,0.452,0.45,2,2,1,804,3
1.02563525148,0.0104490931645,0.123954832778,0.128740915444,0.478,0.45,0,0,1,805,3
0.0992366961897,0.00907224169582,1.01930494153,0.0956059154062,0.445,0.45,3,2,-1,806,3
1.0590439039,0.00886658430292,0.107606455295,0.120144869878,0.54,0.45,0,0,1,807,3
0.158530060361,0.00793953500743,0.186365570104,1.07091798102,0.519,0.45,3,3,1,808,3
0.465160836562,1.0029559725,0.194196851214,0.19856535715,0.616,0.45,1,1,1,809,3
0.105811164141,0.0140245933085,1.01963290494,0.123417497477,0.455,0.45,2,2,1,810,3
0.191017348076,0.026384663409,0.112997963361,1.00539511258,0.472,0.45,3,3,1,811,3
0.0953331645273,0.0150831781545,1.00653556932,0.129726000789,0.478,0.45,2,2,1,812,3
0.297285617031,1.03579395191,0.272304582043,0.154728708591,0.447,0.45,1,1,2,813,3
1.18550803553,0.117533098186,0.157627616554,0.110322950453,0.358,0.45,0,0,2,814,3
0.130873644529,0.0396309027048,1.00828243443,0.0799002155753,0.512,0.45,2,2,1,815,3
1.02501451229,0.0291146540511,0.148578889474,0.0831028528318,0.427,0.45,0,0,2,816,3
0.259709490656,1.03544893014,0.130640259831,0.0310875317459,0.414,0.45,1,1,2,817,3
0.148702450733,0.0984195321644,0.187414399573,1.08932635979,0.38,0.45,3,3,2,818,3
1.01106665878,0.258231789285,0.126077772682,0.110286874439,0.454,0.45,0,0,1,819,3
0.13868095894,0.0195222058452,1.01558206626,0.166077784884,0.443,0.45,2,2,2,820,3
0.174237098126,0.0241809069048,0.230346786417,1.19083698561,0.428,0.45,3,3,2,821,3
1.11562039271,0.0208700856439,0.134307678929,0.13571470273,0.401,0.45,1,0,-1,822,3
0.624917950067,0.823614985891,0.905630696918,0.280782537038,0.7,0.45,2,-1,0,824,3
0.271585262546,1.01586497938,0.156536243484,0.120853851669,0.467,0.45,1,1,1,824,3
0.20242370631,0.070469996276,0.401917050026,1.18454318775,0.502,0.45,3,3,1,825,3
1.20170284976,0.162838999066,0.18127741272,0.421218674729,0.435,0.45,0,0,2,826,3
0.307975744279,0.143427454245,0.208226006062,1.05717428315,0.548,0.45,3,3,1,827,3
0.403103245695,1.0445369297,0.169306709112,0.323837842487,0.524,0.45,2,1,-1,828,3
1.02817615285,0.472030575094,0.107795603168,0.234840948581,0.588,0.45,0,0,1,829,3
0.328668364258,0.164681293323,0.079607461597,0.169243584622,0.7,0.45,1,-1,0,831,3
0.386978318641,1.1289143022,0.0842962620607,0.210959391071,0.0560000000005,0.45,0,1,-1,831,3
1.02957708401,0.0239312604007,0.110995626017,0.157144877009,0.335,0.45,1,0,-1,832,3
0.222892148421,1.13891272243,0.0814945714075,0.148704841715,0.431,0.45,2,1,-1,833,3
0.179757456362,0.0348487137577,1.05238463443,0.200093866084,0.448,0.45,3,2,-1,834,3
1.25125091823,0.0322188922879,0.466385212263,0.0967443285417,0.52,0.45,1,0,-1,835,3
0.30133634094,0.175361600644,0.179586926303,0.101838066114,0.7,0.45,3,-1,0,837,3
0.233613915776,0.215791522875,0.212015057858,0.397606118222,0.7,0.45,2,-1,0,838,3
1.20686871176,0.123742462049,0.164263569566,0.279856815135,0.481,0.45,0,0,1,838,3
0.229803144512,0.0737121498825,1.17213330071,0.151204318831,0.352,0.45,2,2,2,839,3
0.764089044612,1.01689239082,0.165568785265,0.250710683126,0.549,0.45,1,1,1,840,3
1.06520095805,0.10966071372,0.100639117273,0.0986225183643,0.411,0.45,0,0,2,841,3
0.101484045665,0.0304112037789,1.00563599251,0.165230577133,0.373,0.45,3,2,-1,842,3
1.07391956518,0.0648112462607,0.101628426561,0.164094187897,0.417,0.45,0,0,2,843,3
0.191692944129,0.0321140987206,1.09552090341,0.0891122373636,0.495,0.45,1,2,-1,844,3
0.159316079816,0.394108063479,1.03451393572,0.0832571909854,0.454,0.45,2,2,1,845,3
0.192085460587,0.0320013271802,0.290688015956,1.09434547316,0.516,0.45,3,3,1,846,3
0.268647192447,0.14263388129,1.07760824871,0.0902939520316,0.649,0.45,2,2,1,847,3
0.408977342517,1.09979494858,0.132933056388,0.201249166221,0.457,0.45,1,1,1,848,3
0.213322787035,0.0918159083212,0.132897524585,1.0344156208,0.477,0.45,3,3,1,849,3
0.37589867539,1.02766652001,0.160506003571,0.254550449791,0.462,0.45,1,1,1,850,3
1.17695241774,0.140658263012,0.0565333588262,0.2412422654,0.477,0.45,0,0,1,851,3
0.223657628859,0.0953828471977,0.0720390009019,1.02345722152,0.499,0.45,3,3,1,852,3
1.04861943211,0.143970370188,0.0544112385775,0.271336425972,0.48,0.45,0,0,1,853,3
0.284939023152,0.119294764281,1.01139224368,0.311615781294,0.495,0.45,2,2,1,854,3
1.02682531276,0.163574761465,0.0626697636422,0.106326001759,0.422,0.45,0,0,2,855,3
0.227683633603,0.0900461835001,1.00454084882,0.118734653101,0.426,0.45,2,2,2,856,3
0.323892006086,0.105710234613,0.141925013819,1.16647628601,0.472,0.45,3,3,1,857,3
1.0252284663,0.174803149464,0.0951135258329,0.308959167885,0.367,0.45,1,0,-1,858,3
0.257911880551,0.0849771545512,1.03540199763,0.831155119936,0.557,0.45,2,2,1,859,3
1.00019768268,0.109789113658,0.105458710444,0.139943072551,0.408,0.45,1,0,-1,860,3
0.227835629229,0.115147857425,1.0311174714,0.205650459472,0.394,0.45,3,2,-1,861,3
0.257435280807,0.734742289909,1.10114554318,0.281541837904,0.446,0.45,2,2,2,862,3
1.03639852602,0.0262038164745,0.0794816580144,0.131807050142,0.367,0.45,0,0,2,863,3
0.121024585132,0.020525982841,1.05889703379,0.118590852397,0.327,0.45,3,2,-1,864,3
1.30469595919,0.02352412751,0.086834852134,0.10676230203,0.294,0.45,0,0,2,865,3
0.959239300643,1.12189834084,0.611174683694,0.0823971111053,0.531,0.45,1,1,1,866,3
1.06576748849,0.151434522556,0.139935301009,0.144547747286,0.542,0.45,0,0,1,867,3
0.269956044659,0.23251752013,0.319044641897,1.07871044987,0.628,0.45,3,3,1,868,4
0.385609912467,0.150599562614,1.14335354878,0.271838255139,0.491,0.45,2,2,1,869,4
0.489013093917,1.05620627951,0.282737677434,0.279519306269,0.346,0.45,1,1,2,870,4
1.22205515152,0.214069545,0.164306763887,0.249512357164,0.284,0.45,0,0,2,871,4
0.923227728016,1.16306752774,0.148415564156,0.173010667246,0.453,0.45,1,1,1,872,4
0.33746451199,0.256657472091,1.08948900041,0.155263122178,0.298,0.45,2,2,2,873,4
1.11534621452,0.112484496075,0.183944252593,0.0983357334798,0.461,0.45,0,0,1,874,4
0.213680835841,0.0934375496661,0.243248273313,1.04348040844,0.424,0.45,3,3,2,875,4
1.04052254527,0.344180959729,0.187322856729,0.176761092146,0.478,0.45,0,0,1,876,4
0.210336131227,0.0945506887133,1.11102903091,0.272800362922,0.418,0.45,2,2,2,877,4
0.139343669996,0.034515138758,0.299388662418,1.05345350403,0.41,0.45,3,3,2,878,4
0.425152122974,1.23919295642,0.172082526678,0.33544709048,0.327,0.45,1,1,2,879,4
0.243329923364,0.0775168918732,0.256002977911,1.10136965537,0.383,0.45,3,3,2,880,4
0.118822830514,0.00720122853685,1.05797918585,0.490746530531,0.391,0.45,2,2,2,881,4
0.469269088943,1.04904210599,0.210678719458,0.34676416698,0.514,0.45,0,1,-1,882,4
0.293380360295,1.01200157165,0.103505058037,0.241410541854,0.535,0.45,1,1,1,883,4
1.0321424413,0.208892074999,0.0613220700012,0.223838339018,0.677,0.45,0,0,1,884,4
0.152507132598,0.0445896167596,1.06799032108,0.268701488469,0.498,0.45,2,2,1,885,4
0.55293772054,1.09079294832,0.13202724816,0.282875752936,0.443,0.45,1,1,2,886,4
0.222711840687,0.0597133050475,0.073197811178,1.13131529433,0.389,0.45,3,3,2,887,4
1.06476697585,0.101129126678,0.0736278405651,0.368221576751,0.331,0.45,0,0,2,888,4
0.266543267683,0.0805957852725,0.141333586741,1.0822880257,0.37,0.45,3,3,2,889,4
0.322703513242,1.04662262195,0.233080424777,0.339558393034,0.508,0.45,1,1,1,890,4
0.188774602008,0.0746365826997,1.01362285617,0.469251924115,0.414,0.45,2,2,2,891,4
0.253353319892,0.100390479918,0.043506753344,1.03054448371,0.472,0.45,3,3,1,892,4
0.200013089983,0.258825918771,1.03864851372,0.579960051324,0.631,0.45,2,2,1,893,4
1.00872706789,0.499969887379,0.064252333823,0.272981367706,0.583,0.45,0,0,1,894,4
0.251554680684,1.0893514277,0.111806247061,0.26814823211,0.511,0.45,1,1,1,895,4
1.00122200862,0.257191766683,0.0558597434894,0.224959238898,0.486,0.45,0,0,1,896,4
0.260851000663,0.150415236354,1.0564564938,0.46251375521,0.403,0.45,2,2,2,897,4
0.49272972514,1.14336803763,0.0484913191184,0.421673960316,0.392,0.45,1,1,2,898,4
0.209042345061,0.130524537926,1.15278807812,0.317561926678,0.411,0.45,2,2,2,899,4
0.450763704184,0.237096955348,0.0976844884449,1.06660302555,0.54,0.45,3,3,1,900,4
1.18488924347,0.202895802873,0.0792841952017,0.256323844441,0.532,0.45,0,0,1,901,4
0.293888135149,0.111138716873,0.163240339975,1.01497165023,0.436,0.45,3,3,2,902,4
0.503901852709,1.07864065543,0.11719843889,0.328038494429,0.349,0.45,1,1,2,903,4
0.323506363443,0.162463540778,0.117672989013,1.00229201113,0.523,0.45,3,3,1,904,4
1.06920685777,0.164060736068,0.0314675592994,0.188866457707,0.415,0.45,0,0,2,905,4
0.388565338255,0.189064395137,1.16049838463,0.502537943748,0.513,0.45,2,2,1,906,4
0.351752741543,1.2023764568,0.200843911391,0.242514979488,0.39,0.45,1,1,2,907,4
1.07019759701,0.172240691903,0.0293069513799,0.253420242988,0.374000000001,0.45,0,0,2,908,4
0.968255440417,1.05195773484,0.0645235477065,0.147510828227,0.471000000001,0.45,1,1,1,909,4
0.441277668957,0.317568987181,1.14691340654,0.251796135564,0.369000000001,0.45,2,2,2,910,4
1.12263318454,0.115360499615,0.0733534427014,0.234868469143,0.373000000001,0.45,0,0,2,911,4
0.25777823814,0.0721126758598,0.317324172655,1.07781380907,0.481000000001,0.45,3,3,1,912,4
1.05027081128,0.198382994949,0.0717086109889,0.144436398469,0.432000000001,0.45,1,0,-1,913,4
0.171002153881,0.0490659183893,0.0670723966698,1.10290380647,0.420000000001,0.45,3,3,2,914,4
0.13784831453,0.031482870852,1.08943640199,0.769646600588,0.521000000001,0.45,2,2,1,915,4
0.226265398791,0.0474979768067,0.193243289715,1.14962880902,0.523000000001,0.45,3,3,1,916,4
0.426050715726,1.00717846039,0.146655021728,0.278257858592,0.423000000001,0.45,1,1,2,917,4
1.09982408706,0.680389241764,0.0716895880046,0.249572211993,0.424000000001,0.45,0,0,2,918,4
0.131326590023,0.0600268075307,1.02665114982,0.452298676355,0.346000000001,0.45,2,2,2,919,4
0.458249256734,1.09054937486,0.198903986857,0.252422776325,0.322000000001,0.45,1,1,2,920,4
0.502702046996,0.0181351033237,1.00592071806,0.248789103693,0.441000000001,0.45,2,2,2,921,4
1.04362975519,0.281917784543,0.159812475207,0.200806421411,0.542000000001,0.45,0,0,1,922,4
0.199097231893,1.01057640659,0.173224045977,0.263218475601,0.426000000001,0.45,1,1,2,923,4
0.258708290616,0.101101258193,0.665692393551,1.07007890283,0.494000000001,0.45,3,3,1,924,4
0.310452705753,0.100667460093,1.04666694128,0.428881259335,0.540000000001,0.45,2,2,1,925,4
0.274264956273,0.0272857961402,0.226920772026,1.11938019171,0.473000000001,0.45,3,3,1,926,4
1.06364713332,0.0238338183188,0.115643420588,0.315287959048,0.494000000001,0.45,0,0,1,927,4
0.116515378169,0.0234977220538,0.525406446147,1.03277375624,0.401000000001,0.45,3,3,2,928,4
1.07436988999,0.0234442782266,0.0920878218345,0.333404772319,0.405000000001,0.45,1,0,-1,929,4
1.02070386375,0.0227533879314,0.187773052158,0.264987504379,0.503000000001,0.45,0,0,1,930,4
0.110413921921,0.0233480217828,1.04655428672,0.381012517492,0.458000000001,0.45,2,2,1,931,4
1.06264694433,0.208766637577,0.230644505987,0.169662528727,0.566000000001,0.45,0,0,1,932,4
0.27761923113,0.220335042115,0.676296734889,0.428109730924,0.7,0.45,1,-1,0,934,4
0.163389540668,0.0747883352813,1.03957814798,0.251633253428,0.533000000001,0.45,2,2,1,934,4
0.21899211636,0.0343057004416,0.189335077274,1.00518836067,0.438000000001,0.45,3,3,2,935,4
1.0724150714,0.0316932529953,0.0987711972936,0.305140492909,0.354000000001,0.45,0,0,2,936,4
0.216734883367,0.0302478857958,0.606749302846,1.01884724198,0.431000000001,0.45,3,3,2,937,4
0.239868357801,0.0311349850924,0.132789051726,1.07837220653,0.428000000001,0.45,2,3,-1,938,4
1.02081000735,0.0312373728407,0.230796572064,0.0478062307823,0.440000000001,0.45,1,0,-1,939,4
0.28586533751,0.229172526484,0.365324877065,1.05018725955,0.501000000001,0.45,3,3,1,940,4
1.18887198828,0.157543395418,0.115447285547,0.199278904255,0.469000000001,0.45,0,0,1,941,4
0.446790297968,1.1108735317,0.291059304857,0.433787015841,0.556000000001,0.45,1,1,1,942,4
0.208980041629,0.142620860809,1.11282573174,0.238210547506,0.453000000001,0.45,2,2,1,943,4
1.21836947632,0.0793445316095,0.17261036898,0.144951319196,0.416000000001,0.45,1,0,-1,944,4
1.28302273599,0.0765969849191,0.0799143586705,0.16752675367,0.450000000001,0.45,0,0,1,945,4
0.283766646512,0.113018051954,1.07578064113,0.196699162737,0.508000000001,0.45,2,2,1,946,4
1.08294166714,0.0373603271874,0.11071366709,0.15461490958,0.498000000001,0.45,0,0,1,947,4
0.169035207591,0.0246690447616,0.397452465479,1.04206552383,0.523000000001,0.45,3,3,1,948,4
0.312035055148,0.0235505368676,1.00555897935,0.342621464571,0.592000000001,0.45,2,2,1,949,4
0.190761412341,0.0234527288474,0.069124785808,1.16971013157,0.538000000001,0.45,3,3,1,950,4
0.628519497709,1.06745391275,0.308167661019,0.26478950794,0.7,0.45,1,-1,0,952,4
0.628519497709,1.06745391275,0.308167661019,0.26478950794,0.00200000000052,0.45,3,1,-1,952,4
0.201795052509,0.113206340052,1.11441596763,0.183000502193,0.609000000001,0.45,2,2,1,953,4
0.592435650936,1.02256572316,0.110221475652,0.226383844483,0.474000000001,0.45,1,1,1,954,4
1.13828573001,0.129490373167,0.0622425984985,0.162408253221,0.322000000001,0.45,0,0,2,955,4
0.391761076334,0.125948955786,1.03612100635,0.241210781869,0.474000000001,0.45,2,2,1,956,4
1.01617259341,0.125184345175,0.0853825906284,0.203865601263,0.582000000001,0.45,0,0,1,957,4
0.389332601096,1.0780385915,0.106089992296,0.162407977297,0.419000000001,0.45,1,1,2,958,4
0.2968863811,0.0158637717594,1.11062768391,0.127735557837,0.390000000001,0.45,2,2,2,959,4
0.347558597036,0.015644699759,0.0323322725106,1.01814717027,0.362000000001,0.45,3,3,2,960,4
0.604020725863,1.04787637526,0.258578589797,0.343987462462,0.525000000001,0.45,1,1,1,961,4
0.161991587484,0.0237852666812,1.02061269567,0.2728425274,0.439000000001,0.45,3,2,-1,962,4
1.07917358231,0.0234596363489,0.0875679588528,0.202309809324,0.492000000001,0.45,0,0,1,963,4
0.180126685147,0.0234405450019,0.104321579554,1.05568076905,0.430000000001,0.45,3,3,2,964,4
0.419964789193,0.804962257081,1.09162242907,0.343368676586,0.480000000001,0.45,2,2,1,965,4
0.448892311077,1.02538071859,0.0391894683816,0.146826947123,0.418000000001,0.45,1,1,2,966,4
1.10572148444,0.0189167530469,0.0370225078095,0.12897872968,0.359000000001,0.45,0,0,2,967,4
0.426894976591,1.12561531962,0.435329670386,0.230972445989,0.490000000001,0.45,1,1,1,968,4
0.424390651815,0.389866538489,1.06227563733,0.166222746264,0.409000000001,0.45,2,2,2,969,4
1.21590435955,0.0161287813971,0.0469966212581,0.156852232909,0.408000000001,0.45,0,0,2,970,4
0.357879309795,0.0536045519474,1.0028778073,0.294228086388,0.387000000001,0.45,2,2,2,971,4
0.326646822022,0.0201706048269,0.215686198764,1.197407502,0.369000000001,0.45,3,3,2,972,4
0.561554868111,1.12994105022,0.221778210339,0.151748163686,0.401000000001,0.45,1,1,2,973,4
0.289239377713,0.0537551803902,0.31521571405,1.13555046485,0.454000000001,0.45,3,3,1,974,4
1.12114117178,0.177653647358,0.0972254543254,0.247230973894,0.387000000001,0.45,0,0,2,975,4
0.115124434417,0.0541100257393,1.02904859419,0.407911548049,0.371000000001,0.45,3,2,-1,976,4
1.03176860754,0.0332202422917,0.125541972018,0.308276138138,0.381000000001,0.45,0,0,2,977,4
0.238878328529,0.015387007983,1.12180246839,0.295287023264,0.337000000001,0.45,1,2,-1,978,4
0.220238382132,0.016379881551,1.02653956075,0.281265739454,0.331000000001,0.45,2,2,2,979,4
1.12618120117,0.22367348088,0.229757398765,0.297484954954,0.478000000001,0.45,0,0,1,980,4
0.252061319554,0.11516900387,1.09104927347,0.251978204227,0.469000000001,0.45,2,2,1,981,4
0.483257495883,1.02632537891,0.178435890629,0.223571783315,0.396000000001,0.45,1,1,2,982,4
1.3198915138,0.118577471758,0.132204424961,0.238343357377,0.405000000001,0.45,0,0,2,983,4
0.362177861073,0.0975282784502,0.316366202959,1.05550758314,0.516000000001,0.45,3,3,1,984,4
0.353119862586,0.146644539443,1.05954270028,0.233660791969,0.561000000001,0.45,2,2,1,985,4
0.193956988466,0.0138324721948,0.288238949724,1.07486957141,0.602000000001,0.45,3,3,1,986,4
0.485695315915,1.00308684611,0.130472185265,0.323017254209,0.485000000001,0.45,1,1,1,987,4
0.0709120103305,0.0828070391638,0.195825047483,1.09951759748,0.357000000001,0.45,3,3,2,988,4
0.352899633822,1.11525103849,0.126256005648,0.328142107856,0.397000000001,0.45,0,1,-1,989,4
0.358959834339,0.0375689171048,1.05869340621,0.609626694862,0.438000000001,0.45,2,2,2,990,4
0.566570281862,1.07551327908,0.181751262975,0.264045864389,0.427000000001,0.45,1,1,2,991,4
1.02559363865,0.113452337223,0.302850320863,0.230168636519,0.381000000001,0.45,0,0,2,992,4
1.07857702279,0.0941750542893,0.242549788769,0.232587513177,0.418000000001,0.45,1,0,-1,993,4
0.106078737051,0.0580406117844,1.02086102757,0.153834268617,0.453000000001,0.45,2,2,1,994,4
1.14522229007,0.0273654709938,0.126831672255,0.106504742718,0.472000000001,0.45,0,0,1,995,4
0.194847795348,0.0238720869893,0.254879785088,1.06169951456,0.472000000001,0.45,3,3,1,996,4
0.473425468367,1.08548403232,0.167219470427,0.250908919422,0.450000000001,0.45,1,1,1,997,4
0.101367910455,0.113611144136,0.18599856434,1.08548615177,0.470000000001,0.45,3,3,1,998,4
0.143542082702,0.054082554535,1.01742372887,0.830928855307,0.556000000001,0.45,2,2,1,999,4
0.156744113114,0.0226889473352,0.245884881765,1.08069355176,0.535000000001,0.45,3,3,1,1000,4
1.13009770957,0.0160323111833,0.208041615046,0.130538624565,0.556000000001,0.45,0,0,1,1001,4
0.291784498785,0.162271396196,0.204846190966,0.197195839722,0.7,0.45,2,-1,0,1003,4
0.21174909591,0.0506658531464,1.1392867741,0.205199227019,0.157000000001,0.45,1,2,-1,1003,4
0.149680529697,0.0980696072401,1.04892776335,0.152250634709,0.435000000001,0.45,2,2,2,1004,4
1.20594636115,0.0356954594501,0.0531045657866,0.107048454232,0.452000000001,0.45,0,0,1,1005,4
0.435134582576,1.05421729465,0.24144943955,0.169847969276,0.333000000001,0.45,1,1,2,1006,4
0.228551758534,0.0301061987478,0.491531610341,1.07631348586,0.367000000001,0.45,3,3,2,1007,4
0.444701577317,1.2133866108,0.289616856377,0.455775438046,0.379000000001,0.45,1,1,2,1008,4
1.04087511207,0.0158271315463,0.263778241125,0.304784591627,0.423000000001,0.45,0,0,2,1009,4
0.369986572315,0.175263305497,0.356968843462,1.109803403,0.491000000001,0.45,3,3,1,1010,4
0.321815348077,0.183159267071,1.15896879503,0.49822974439,0.498000000001,0.45,2,2,1,1011,4
0.238706812531,0.0263877329944,0.249465909095,1.09109543823,0.550000000001,0.45,3,3,1,1012,4
0.220087146436,0.0238691839129,1.04107047359,0.358085401849,0.462000000001,0.45,2,2,1,1013,4
1.04567392473,0.0234889985182,0.101155616222,0.196808466458,0.447000000001,0.45,0,0,2,1014,4
0.478583322071,1.11877370735,0.314077461357,0.353584907679,0.389000000001,0.45,1,1,2,1015,4
1.00388992464,0.127938598607,0.356542002136,0.353385954863,0.520000000001,0.45,0,0,1,1016,4
0.249064929217,0.110895813336,1.01099738886,0.233096601165,0.629000000001,0.45,2,2,1,1017,4
0.522788409348,1.17533467037,0.167759798458,0.169710667004,0.621000000001,0.45,1,1,1,1018,4
0.14278923448,0.0806815102197,1.15870717706,0.195959656821,0.410000000001,0.45,3,2,-1,1019,4
0.290094718963,0.0277846380737,1.02085249668,0.136427525317,0.352000000001,0.45,1,2,-1,1020,4
0.573530003812,1.16919503869,0.315989472475,0.142690430427,0.365000000001,0.45,2,1,-1,1021,4
0.292734910848,0.117234263496,0.545634375817,1.20056942147,0.462000000001,0.45,3,3,1,1022,4
1.12914419011,0.262202881731,0.152061133736,0.205820057472,0.405000000001,0.45,0,0,2,1023,4
0.109512919111,0.0462291124029,0.446058931704,1.14488736275,0.451000000001,0.45,3,3,1,1024,4
1.15314544573,0.162681487925,0.134650801285,0.244524390165,0.414000000001,0.45,0,0,2,1025,4
0.157741603731,0.0633186749273,1.03516198613,0.526471763892,0.320000000001,0.45,1,2,-1,1026,4
0.352907710675,0.332993313411,1.24084687438,0.0800819149813,0.301000000001,0.45,2,2,2,1027,4
1.03025866351,1.21257581084,0.0671557477687,0.114657278778,0.430000000001,0.45,0,1,-1,1028,4
0.260991953913,0.022291808312,1.06857671704,0.174275934914,0.443000000001,0.45,2,2,2,1029,4
0.782227615913,1.06871436025,0.211125415338,0.120850012366,0.470000000001,0.45,1,1,1,1030,4
0.105347043289,0.0300092081211,1.05019215919,0.154743194082,0.401000000001,0.45,3,2,-1,1031,4
1.04348430748,0.354369522184,0.0879342449469,0.13649671396,0.448000000001,0.45,1,0,-1,1032,4
1.38563813018,0.0866399564869,0.0323619322523,0.0991566195577,0.549000000001,0.45,0,0,1,1033,4
0.197068186929,0.0773628151099,0.15910516529,1.22812311471,0.435000000001,0.45,3,3,2,1034,4
0.18909095327,0.0537004924991,1.06290024402,0.241712534199,0.403000000001,0.45,2,2,2,1035,4
0.121505000456,0.0117153339905,0.553862841457,1.13788187841,0.473000000001,0.45,3,3,1,1036,4
0.220642576408,0.00880417714468,1.07180562559,0.218033553847,0.446000000001,0.45,2,2,2,1037,4
1.09551851078,0.00796018316907,0.0970411435701,0.187198773512,0.359000000001,0.45,1,0,-1,1038,4
1.03805291777,0.277899416532,0.25877900595,0.185195752949,0.563000000001,0.45,0,0,1,1039,4
0.213379085994,1.17379955516,0.262101535348,0.20518487098,0.473000000001,0.45,1,1,1,1040,4
0.11579473945,0.0632797544866,1.07049127629,0.261792394037,0.434000000001,0.45,2,2,2,1041,4
1.06346880192,0.0132620061149,0.125560842172,0.107577405366,0.403000000001,0.45,0,0,2,1042,4
0.108756104898,0.0240827343757,1.00165296158,0.149443759047,0.442000000001,0.45,2,2,2,1043,4
0.293416309437,0.0383935575629,0.413580722703,1.02625445331,0.457000000001,0.45,3,3,1,1044,4
0.421626899482,1.02986867109,0.145545759264,0.298990939238,0.462000000001,0.45,1,1,1,1045,4
0.289713390042,0.0709535693517,0.165946532278,1.10915406791,0.601000000001,0.45,3,3,1,1046,4
1.16521549119,0.105139501056,0.100054963338,0.287362751464,0.476000000001,0.45,0,0,1,1047,4
0.18614963343,0.107974103261,0.335865273437,1.06280778843,0.478000000001,0.45,3,3,1,1048,4
0.230205052364,0.0576572294143,1.0321596257,0.305911573665,0.440000000001,0.45,2,2,2,1049,4
0.416845065204,1.03025933884,0.120097100353,0.191110909528,0.372000000001,0.45,1,1,2,1050,4
1.10598732885,0.186170270964,0.11071737438,0.211582151358,0.335000000001,0.45,0,0,2,1051,4
0.17297454916,0.0789007729777,1.04571775178,0.329682336341,0.265000000001,0.45,2,2,2,1052,4
0.427852782013,1.07734788747,0.167731253059,0.30851226334,0.651000000001,0.45,0,1,-1,1053,4
0.45831012803,1.08397223837,0.102227675575,0.221177597994,0.567000000001,0.45,1,1,1,1054,4
0.313192849609,0.049191671292,1.06729055267,0.199606453293,0.435000000001,0.45,2,2,2,1055,4
0.362799148231,0.0762821875317,0.0823380925577,1.148950354,0.325000000001,0.45,3,3,2,1056,4
0.559235467056,0.60553684367,0.0403019192627,0.148366171727,0.7,0.45,1,-1,0,1058,4
0.55726163265,1.06709015139,0.0369400061717,0.135594540342,0.0370000000006,0.45,3,1,-1,1058,4
1.00357725995,0.234965745789,0.0236488085269,0.219266905604,0.481000000001,0.45,0,0,1,1059,4
0.249307365555,0.156465507293,0.023478396319,1.11255109073,0.310000000001,0.45,3,3,2,1060,4
0.455281490212,1.03371727525,0.0315679683197,0.229253721972,0.358000000001,0.45,2,1,-1,1061,4
0.38125300614,1.19987613537,0.0381381950028,0.0796657279342,0.327000000001,0.45,0,1,-1,1062,4
0.413871590248,1.01308691789,0.0317327594587,0.0523517695815,0.370000000001,0.45,1,1,2,1063,4
1.05104152699,0.163163179725,0.0312915798849,0.0684543948807,0.459000000001,0.45,0,0,1,1064,4
0.268854967738,0.14406753815,1.11768964688,0.137296545354,0.449000000001,0.45,2,2,2,1065,4
1.13387300525,0.17196089627,0.0436549804199,0.10850398586,0.400000000001,0.45,1,0,-1,1066,4
0.483273193286,0.160988706943,0.363664350161,1.04538345163,0.7,0.45,3,-1,0,1068,4
0.483273193286,0.160988706943,0.363664350161,1.04538345163,0.00500000000059,0.45,0,3,-1,1068,4
0.466522998697,0.241799404253,0.0431101347248,1.01123914736,0.422000000001,0.45,3,3,2,1069,4
0.433833192803,1.00357665229,0.0271233616421,0.405720460338,0.516000000001,0.45,1,1,1,1070,4
0.337305079726,0.185906035682,1.05047838631,0.226989232628,0.405000000001,0.45,2,2,2,1071,4
0.376134905702,0.143758232162,0.0239551611374,1.02723118134,0.465000000001,0.45,3,3,1,1072,4
0.228310979674,0.302787558515,0.965739895101,0.47975737113,0.7,0.45,2,-1,0,1074,4
0.225762561614,0.276311359944,1.16535087237,0.480665387975,0.0140000000006,0.45,1,2,-1,1074,4
1.10395668353,0.116623065223,0.0312648196482,0.168284065441,0.393000000001,0.45,0,0,2,1075,4
0.352278554346,1.00129808921,0.0371060213059,0.0767362679969,0.432000000001,0.45,1,1,2,1076,4
0.315931113451,1.06370620051,0.0387976450863,0.117946121546,0.372000000001,0.45,2,1,-1,1077,4
0.911989617521,0.383400924981,0.0390516985073,0.0685461654471,0.7,0.45,0,-1,0,1079,4
0.748682235263,1.02112154964,0.0390544063992,0.0570692957971,0.0960000000006,0.45,2,1,-1,1079,4
0.357396853897,0.125951360271,0.128990195541,1.06611987695,0.503000000001,0.45,3,3,1,1080,4
0.390269878122,1.08413783528,0.0586431536292,0.213640436518,0.581000000001,0.45,1,1,1,1081,4
0.200993591004,0.0140667931378,0.0656913893151,1.04782948591,0.643000000001,0.45,3,3,1,1082,4
1.07641233632,0.0959768044818,0.0364200127345,0.181107791003,0.570000000001,0.45,0,0,1,1083,4
0.214008415269,0.0115262373549,0.197589855725,1.14376488751,0.625000000001,0.45,3,3,1,1084,4
1.0801640744,0.169492369962,0.130500057039,0.111557852748,0.532000000001,0.45,0,0,1,1085,5
0.448264382013,1.00770087136,0.125588680573,0.135126061211,0.467000000001,0.45,1,1,1,1086,5
0.301608912014,0.24102142551,1.09084245399,0.166691824486,0.332000000001,0.45,2,2,2,1087,5
0.256872070608,0.0318796843295,0.241737981965,1.09219689715,0.361000000001,0.45,3,3,2,1088,5
0.440678120027,1.02703514304,0.0799219678955,0.102526294208,0.557000000001,0.45,1,1,1,1089,5
0.183665053402,0.0319583200136,0.0473041914068,1.05728777399,0.546000000001,0.45,3,3,1,1090,5
0.240456840311,0.0555100844512,1.08639857003,0.426415167591,0.540000000001,0.45,2,2,1,1091,5
1.01287552851,0.218112271152,0.120907179091,0.170567751957,0.556000000001,0.45,0,0,1,1092,5
0.15208537777,0.055169338329,1.09878961201,0.188981550245,0.509000000001,0.45,2,2,1,1093,5
0.341270888164,1.00435895395,0.164664788366,0.162236372932,0.340000000001,0.45,1,1,2,1094,5
1.06873769372,0.0780808110882,0.100448094437,0.15135787636,0.417000000001,0.45,0,0,2,1095,5
0.189276231688,0.0490900629454,0.276825858694,1.07430121553,0.486000000001,0.45,3,3,1,1096,5
1.12575399144,0.156490839817,0.111792856338,0.213309979821,0.495000000001,0.45,0,0,1,1097,5
0.172509384489,0.115926040257,1.07328487176,0.344721522063,0.450000000001,0.45,2,2,1,1098,5
0.229053340806,0.0559180349405,0.152577100922,1.0585545375,0.435000000001,0.45,3,3,2,1099,5
0.454094731031,1.03076280908,0.0520616978267,0.251779328602,0.375000000001,0.45,1,1,2,1100,5
0.173022207339,0.0519671371899,0.0473619779924,1.04568978325,0.421000000001,0.45,3,3,2,1101,5
0.23715852605,0.079702148829,1.08625006754,0.518208487032,0.577000000001,0.45,2,2,1,1102,5
0.276600479925,1.18803796443,0.0900083313157,0.17909453045,0.401000000001,0.45,1,1,2,1103,5
1.02584758853,0.0321761713051,0.107750767873,0.178944329289,0.352000000001,0.45,0,0,2,1104,5
0.423880023454,1.14207311701,0.0818889448207,0.139786558819,0.435000000001,0.45,1,1,2,1105,5
0.150407556521,0.233353494527,1.05905334181,0.191682258834,0.412000000001,0.45,2,2,2,1106,5
1.14132967852,0.0170437084602,0.0493849528317,0.117690641868,0.535000000001,0.45,0,0,1,1107,5
0.171857069868,0.0301052481768,0.0753984082798,1.02840620062,0.543000000001,0.45,3,3,1,1108,5
1.16853567155,0.0305718091326,0.0552278704051,0.113273453685,0.599000000001,0.45,0,0,1,1109,5
0.0893024950414,0.0123063648843,1.01596248068,0.249971520682,0.548000000001,0.45,2,2,1,1110,5
0.57369985274,1.03776483055,0.0839395933585,0.17993991112,0.567000000001,0.45,1,1,1,1111,5
0.225388096708,0.0747832244167,0.0405005833053,1.06120273223,0.485000000001,0.45,3,3,1,1112,5
0.205258610773,0.0563896933209,1.01186265434,0.434639200434,0.568000000001,0.45,2,2,1,1113,5
0.169014982076,0.0497667407382,0.0641072336352,1.07970532539,0.615000000001,0.45,3,3,1,1114,5
0.330507109582,1.00307818935,0.0450124462694,0.163111725517,0.486000000001,0.45,1,1,1,1115,5
0.13305934318,0.0328249558418,1.07716750972,0.350442956194,0.580000000001,0.45,2,2,1,1116,5
0.882445568046,0.236201665218,0.0559980739899,0.111992848563,0.7,0.45,0,-1,0,1118,5
1.08782738707,0.205157134028,0.0553243450836,0.115845188477,0.0150000000006,0.45,3,0,-1,1118,5
1.00804372246,0.0162998624383,0.0402315086142,0.0706233044465,0.422000000001,0.45,0,0,2,1119,5
0.752369183479,1.05542100611,0.0658478453011,0.193337179748,0.546000000001,0.45,1,1,1,1120,5
1.0849240118,0.100441651479,0.0348711900285,0.138631802888,0.566000000001,0.45,0,0,1,1121,5
0.358730836403,1.12177707459,0.0317664945166,0.0985191416813,0.490000000001,0.45,1,1,1,1122,5
0.229232189204,0.0156306748699,0.0313016212547,1.09409100968,0.532000000001,0.45,3,3,1,1123,5
0.247536581718,0.0508651228792,1.05177782455,0.270011889618,0.615000000001,0.45,2,2,1,1124,5
0.218501332029,0.0241464299974,0.0314361084261,1.00933075377,0.634000000001,0.45,3,3,1,1125,5
0.407423162564,1.07092179683,0.0312726373519,0.155545268284,0.527000000001,0.45,1,1,1,1126,5
0.0890909122053,0.0312245911485,1.02849899718,0.303919561265,0.562000000001,0.45,2,2,1,1127,5
1.07938439825,0.0581273285685,0.0483882235048,0.185713266807,0.572000000001,0.45,0,0,1,1128,5
0.0412300973722,0.0185758675095,0.0724979815693,1.03532482309,0.566000000001,0.45,3,3,1,1129,5
1.0052024347,0.0161198365092,0.0480982081542,0.259281415437,0.439000000001,0.45,0,0,2,1130,5
0.0448194732468,0.0156639675497,1.02221099014,0.386730727004,0.558000000001,0.45,2,2,1,1131,5
0.360584291663,1.07749223631,0.209445098201,0.28768601425,0.589000000001,0.45,1,1,1,1132,5
1.02919883828,0.0234430747459,0.0724471196598,0.19192608409,0.484000000001,0.45,0,0,1,1133,5
0.125603041629,0.00914461348428,1.12177054174,0.184661637674,0.412000000001,0.45,2,2,2,1134,5
0.472815142303,1.05258004887,0.122040222515,0.169197121918,0.466000000001,0.45,1,1,1,1135,5
0.236476449311,0.023494218457,0.120238258578,1.06236807808,0.454000000001,0.45,3,3,1,1136,5
0.3807549007,1.16886745445,0.039388443857,0.267486894547,0.389000000001,0.45,1,1,2,1137,5
0.102338128624,0.0234101378835,1.13531082331,0.423690941759,0.512000000001,0.45,2,2,1,1138,5
0.273532119666,0.0234353390285,0.0968707091546,1.09117184789,0.569000000001,0.45,3,3,1,1139,5
0.331573438992,0.0234373398711,0.723050927548,0.311760555341,0.7,0.45,2,-1,0,1141,5
0.478719856082,1.00470968303,0.180290464952,0.259215167961,0.218000000001,0.45,0,1,-1,1141,5
0.527623176301,1.02799261552,0.0352588687852,0.186021489837,0.348000000001,0.45,1,1,2,1142,5
1.2897563093,0.0759206849009,0.0668399000003,0.20916687847,0.325000000001,0.45,0,0,2,1143,5
0.118354583619,0.0676599839884,0.679141092788,1.16646311921,0.459000000001,0.45,3,3,1,1144,5
1.29596008376,0.0463235234764,0.0247036555493,0.209929112329,0.502000000001,0.45,0,0,1,1145,5
0.176255119553,0.0107087419891,0.0235816957749,1.18936396778,0.479000000001,0.45,3,3,1,1146,5
0.39351523418,1.01216840882,0.0394722871526,0.374055538238,0.584000000001,0.45,1,1,1,1147,5
0.0656027494922,0.0312626733811,1.09425910737,0.310831124623,0.474000000001,0.45,2,2,1,1148,5
0.369953557901,1.05545146084,0.039101045395,0.274253252343,0.524000000001,0.45,1,1,1,1149,5
0.0495045565133,0.023460740026,0.377792526684,1.00387017075,0.639000000001,0.45,3,3,1,1150,5
0.120820943293,0.0234394570281,1.17727619955,0.75540571276,0.694000000001,0.45,2,2,1,1151,5
0.111567077583,0.0436038767635,0.0740061089127,1.0056888702,0.7,0.45,3,-1,0,1153,5
0.111567077583,0.0436038767635,0.0740061089127,1.0056888702,0.00700000000063,0.45,0,3,-1,1153,5
0.164939359769,1.01026771479,0.0394040409005,0.336120318811,0.486000000001,0.45,1,1,1,1154,5
1.10035398452,0.0576471325738,0.177764407951,0.300878775085,0.459000000001,0.45,0,0,1,1155,5
0.0829117702199,0.0176814504942,1.00126979837,0.283049607927,0.346000000001,0.45,2,2,2,1156,5
1.15310326433,0.00950225768332,0.0390747671479,0.27480045379,0.420000000001,0.45,0,0,2,1157,5
0.0780953680241,0.00870264325098,0.531703766279,1.1207316422,0.439000000001,0.45,3,3,2,1158,5
0.0975141063462,0.00791148629505,1.04483617075,0.513983352508,0.446000000001,0.45,2,2,2,1159,5
0.0744324860614,1.0096330861,0.0497115154635,0.29356165451,0.415000000001,0.45,1,1,2,1160,5
0.185928977698,1.04679704954,0.139656542786,0.227626599003,0.473000000001,0.45,2,1,-1,1161,5
0.0640319520786,0.0316259387108,0.0390625467852,1.09168855098,0.540000000001,0.45,3,3,1,1162,5
0.0719050911652,1.13469931741,0.0390625034351,0.174581903373,0.478000000001,0.45,1,1,1,1163,5
0.0643684132501,0.023479920352,0.091984442001,1.00167936037,0.467000000001,0.45,3,3,1,1164,5
1.31610732958,0.153838423811,0.0339010161946,0.261353160529,0.606000000001,0.45,0,0,1,1165,5
0.0588525690849,1.04271493035,0.10690185626,0.23056850077,0.576000000001,0.45,1,1,1,1166,5
1.03802049481,0.0225709937823,0.0597038547238,0.166397211649,0.585000000001,0.45,0,0,1,1167,5
0.0512647230186,0.026344602411,1.13140030303,0.273056298274,0.463000000001,0.45,2,2,1,1168,5
1.07200859898,0.0307068880334,0.0312632769395,0.110682382547,0.468000000001,0.45,0,0,1,1169,5
0.078495485762,0.0276341335697,1.14843104645,0.188200985106,0.339000000001,0.45,2,2,2,1170,5
0.120623325988,0.0309525323225,0.0234431736345,1.06439553049,0.438000000001,0.45,3,3,2,1171,5
0.14220500728,1.12687811627,0.0302294005701,0.279404703278,0.506000000001,0.45,1,1,1,1172,5
0.0640970466865,0.00787183841841,0.0741242757943,1.14574984113,0.533000000001,0.45,3,3,1,1173,5
