force_0,force_1,force_2,force_3,rt,rt_threshold,target_finger,selected_finger,score,trial,run
1.01429088343,0.246772446181,0.227207516727,0.279408800801,0.685,0.45,0,0,1,0,0
0.652035993016,0.144337370815,0.377087161568,1.13914420467,0.499,0.45,3,3,1,1,0
0.459998503598,0.165038953957,1.10470369703,0.245543157885,0.371,0.45,2,2,2,2,0
0.550191425274,1.0574036733,0.125741038372,0.124100367833,0.335,0.45,1,1,2,3,0
0.412182719386,0.158544905912,1.02168613594,0.169970923591,0.296,0.45,2,2,2,4,0
0.498873020708,0.130385600615,0.445329557442,1.0496543039,0.439,0.45,3,3,2,5,0
0.541327286748,1.11681016156,0.0933784418497,0.156613405064,0.326,0.45,1,1,2,6,0
1.0025904574,0.189519078015,0.093797654749,0.0987334220209,0.26,0.45,0,0,2,7,0
0.362143929023,0.181222529253,1.00258848741,0.177202799431,0.325,0.45,2,2,2,8,0
1.06637266837,0.178567844814,0.185489183916,0.295096381016,0.441,0.45,0,0,2,9,0
0.590894405732,1.05536235957,0.460890151011,0.151377111779,0.494,0.45,1,1,1,10,0
0.368179113712,0.1758664487,0.173395198696,1.06062105749,0.509,0.45,3,3,1,11,0
0.411787581665,1.03189323791,0.0942026166921,0.0998158245055,0.461,0.45,0,1,-1,12,0
0.305670551542,0.270254716181,1.01919354216,0.121025265049,0.405,0.45,2,2,2,13,0
0.415152553683,0.122178580073,0.136150363383,1.10122830632,0.488,0.45,3,3,1,14,0
0.579109886961,1.03049483065,0.062145308813,0.00340963878226,0.439,0.45,1,1,2,15,0
0.287718381321,0.0386501000707,1.05037850314,-0.0214085468238,0.385,0.45,2,2,2,16,0
1.0047424841,0.124430647023,0.104232752078,0.0979895815102,0.315,0.45,1,0,-1,17,0
0.41411951661,0.0883325949952,0.196190855443,1.00013183931,0.585,0.45,3,3,1,18,0
1.03112172391,0.129962817276,0.0534848369914,-0.0221590215659,0.367,0.45,0,0,2,19,0
0.607790641371,1.05976128046,0.0565412177673,0.0795166461758,0.305,0.45,1,1,2,20,0
1.07214707364,0.148104508538,0.136710761017,0.117057001027,0.406,0.45,0,0,2,21,0
0.242344138754,0.051771076393,0.593637564829,1.06446559029,0.446,0.45,3,3,2,22,0
0.375350568681,0.0884007787262,1.03235069534,0.12783712261,0.411,0.45,2,2,2,23,0
0.687585934764,1.01362401524,0.10674630818,-0.028885356055,0.333,0.45,0,1,-1,24,0
0.402196100265,0.0422707963414,0.373814365473,1.03057164907,0.443,0.45,3,3,2,25,0
0.373146327115,0.0929678519273,1.07004679301,0.196351202183,0.459,0.45,2,2,1,26,0
0.391573836862,1.03531130946,0.0762386733364,0.0658230246934,0.368,0.45,1,1,2,27,0
0.55060235892,0.152140414136,0.0928256024828,1.07965991012,0.418,0.45,3,3,2,28,0
0.60930034955,1.06535711056,0.076075710734,0.0389834943131,0.378,0.45,1,1,2,29,0
0.390926085384,0.141961284277,1.05680600664,0.187746146015,0.472,0.45,2,2,1,30,0
0.438244528131,0.0928534132489,0.191204773907,1.0376652359,0.427,0.45,3,3,2,31,0
1.05021963196,0.131375237521,0.0269221955523,-0.0512095639137,0.273,0.45,0,0,2,32,0
0.581595200584,1.02327091959,0.117963166166,0.0292053661619,0.335,0.45,1,1,2,33,0
1.14042475508,0.155221913723,0.0666949214373,0.0917228277808,0.427,0.45,0,0,2,34,0
0.322754985097,0.149759730327,1.03527938139,0.166697728918,0.318,0.45,2,2,2,35,0
1.10021884033,0.166229922031,0.0806647953113,0.173047873538,0.358,0.45,0,0,2,36,0
0.744129088973,1.05849306809,0.171047795508,0.0604500622362,0.391,0.45,1,1,2,37,0
0.513823612825,0.0360128083243,0.572699372129,1.02186122729,0.492,0.45,3,3,1,38,0
0.590953553929,1.04121937391,0.052744055272,-0.0305195591681,0.35,0.45,2,1,-1,39,0
1.10980709644,0.481084918617,0.0207255731247,-0.0328701096952,0.283,0.45,1,0,-1,40,0
0.222648938737,0.0749207556475,1.0455075996,0.128590337712,0.429,0.45,2,2,2,41,0
0.326692274159,0.087573301852,0.204324782628,1.085724368,0.445,0.45,3,3,2,42,0
1.03926388826,0.143367268642,0.023429717372,0.0121215809788,0.392,0.45,0,0,2,43,0
0.500645684756,0.19040387599,1.04705796836,0.089458503492,0.319,0.45,2,2,2,44,0
1.0196838918,0.177105154929,0.0687931791896,0.0122413670601,0.391,0.45,0,0,2,45,0
0.450534854887,0.120987441771,0.196138107325,1.06186178704,0.358,0.45,3,3,2,46,0
0.552942376606,1.12343592544,0.0176323434697,0.0211931657075,0.323,0.45,1,1,2,47,0
1.16471551024,0.128929356788,0.0314396248504,0.0112956939589,0.341,0.45,0,0,2,48,0
0.47742490376,0.168864378783,1.01767976612,-0.00896306397402,0.305,0.45,2,2,2,49,0
0.594921527659,0.175573929212,0.0532827374655,1.12806246861,0.308,0.45,3,3,2,50,0
1.0387003134,0.161737513099,0.0488656605047,0.0099285636889,0.267,0.45,1,0,-1,51,0
0.39278163495,0.0551969822858,1.16280802906,0.106942254606,0.409,0.45,2,2,2,52,0
0.425743827818,1.06396856806,0.0471264006254,0.0188066513562,0.291,0.45,1,1,2,53,0
0.312379464121,0.0891206146295,1.03564153224,0.232342796141,0.495,0.45,3,2,-1,54,0
0.443671373568,0.0725862096414,1.11161642818,0.150691771823,0.375,0.45,2,2,2,55,0
1.11413463877,0.152286420785,0.0213101618182,-0.0335152724072,0.307,0.45,0,0,2,56,0
0.496761428038,1.06611925345,0.121844824661,0.0585263170383,0.524,0.45,1,1,1,57,0
1.07451289575,0.151915570851,0.0187125539031,0.0293037986212,0.436,0.45,0,0,2,58,0
0.260786482554,0.0410542010084,0.507222740627,1.05979984138,0.517,0.45,3,3,1,59,0
1.05627746868,0.179301279259,0.0303688305001,0.053074804716,0.392,0.45,0,0,2,60,0
0.250836095337,0.0300164896506,0.00761121610353,0.129480764346,0.7,0.45,3,-1,0,62,0
0.437817187741,0.475131656929,1.00461608536,0.121692821004,0.474,0.45,2,2,1,62,0
0.507318387018,1.04258980544,0.0713237194767,-0.0619861481308,0.379,0.45,1,1,2,63,0
0.251175063368,0.0154669273545,0.531475168311,1.05929251605,0.446,0.45,3,3,2,64,0
0.7112732116,1.14384880005,0.0324176954984,0.0535347583008,0.441,0.45,1,1,2,65,0
0.209145620724,0.0426819692067,1.03812626592,0.0493369424945,0.38,0.45,2,2,2,66,0
0.293941603733,0.0329672374377,0.115584117456,1.17701598239,0.435,0.45,3,3,2,67,0
1.05662182022,0.0895969417135,0.0508912280883,0.0259251113201,0.292,0.45,0,0,2,68,0
0.305626770843,0.0885713432885,1.04199952982,0.0738385094468,0.276,0.45,2,2,2,69,0
1.0138372285,0.137594022026,0.0237572723172,0.012680829792,0.239,0.45,0,0,2,70,0
0.484941853546,1.07084252553,0.0905884351274,0.0390593923583,0.342,0.45,1,1,2,71,0
1.06764446665,0.427939790398,0.0582783948672,0.0631811176589,0.467,0.45,0,0,1,72,0
0.264453111091,0.0769058177744,1.1120651921,0.0331812842809,0.398,0.45,2,2,2,73,0
0.431067198795,1.12324604493,0.0508307905867,0.115894233685,0.434,0.45,1,1,2,74,0
0.213906879339,0.102912601784,0.0948348767126,-0.0681252235933,0.7,0.45,3,-1,0,76,0
0.269580740871,0.0681522139377,1.05851258969,-0.022691641994,0.388,0.45,2,2,2,76,0
0.232080193388,0.0837652813563,0.0743448250756,1.00210139759,0.521,0.45,3,3,1,77,0
0.507064385668,1.04786030639,0.0347997214953,-0.0149565148498,0.385,0.45,1,1,2,78,0
0.240228215313,0.0447021435695,1.09901938813,0.011635013695,0.387,0.45,2,2,2,79,0
1.07459183611,0.156802868229,0.0626783386936,-0.0251777461869,0.37,0.45,0,0,2,80,0
0.215629999343,0.0631658556395,1.05801266252,-0.0150324837715,0.283,0.45,3,2,-1,81,0
1.00108264091,0.0158823891055,0.0237443440958,0.0332764701303,0.459,0.45,0,0,1,82,0
0.436285105584,1.0529040674,0.229186396242,-0.0345446840775,0.376,0.45,1,1,2,83,0
0.482963029018,1.01204921221,0.0622593816464,-0.00500570233585,0.43,0.45,0,1,-1,84,0
0.263003165646,0.151457639985,1.1167499028,0.149282403891,0.359,0.45,2,2,2,85,0
1.13883917656,0.0893810121458,0.0976207454594,0.0217886339386,0.331,0.45,1,0,-1,86,0
1.08526432813,0.105348466987,0.0254441736909,-0.0955330087261,0.183,0.45,3,0,-1,87,0
0.202984066291,0.0847497304243,1.05295689907,-0.0396058402141,0.486,0.45,2,2,1,88,0
0.321801674381,0.0779218485083,0.208508484457,1.03572345131,0.623,0.45,3,3,1,89,0
0.424177405501,1.06329729367,0.0236805264654,0.00560312737745,0.437,0.45,1,1,2,90,0
0.0779498821206,0.0337718849155,1.09652993472,0.088963199653,0.371,0.45,2,2,2,91,0
1.02363501975,0.112242050526,0.0447510733868,-0.124780218333,0.289,0.45,0,0,2,92,0
0.294131994682,0.00971786398734,0.0661937944624,0.128774229377,0.7,0.45,3,-1,0,94,0
1.06098051655,0.239180669831,0.009220121989,0.0393022993287,0.433,0.45,0,0,2,94,0
0.528153005207,1.13610534065,0.0168461483522,0.092679817601,0.426,0.45,1,1,2,95,0
1.20295648463,0.0660302886593,0.0155934112351,0.0158408366266,0.421,0.45,0,0,2,96,0
0.213888014409,0.0706606454193,1.04278938157,-0.0158668241173,0.353,0.45,2,2,2,97,0
0.324009649771,0.0658751603061,0.123248482006,1.12065527372,0.351,0.45,3,3,2,98,0
1.12523767338,0.120055200708,0.0543100142031,-0.0838104796991,0.224,0.45,1,0,-1,99,0
0.28495421926,0.107206001786,1.12201433514,0.0943925668169,0.393,0.45,2,2,2,100,0
0.430028707942,1.12306740785,0.0158598178733,-0.0155730503079,0.323,0.45,1,1,2,101,0
0.467779209154,0.0982548602958,0.0471680791481,1.00715979678,0.428,0.45,3,3,2,102,0
1.0859906381,0.123792909991,0.0389000587585,-0.00620532908562,0.292,0.45,0,0,2,103,0
0.24636269194,0.0175573317639,0.279836315941,1.04756370868,0.504,0.45,3,3,1,104,0
0.276823331508,0.12582422077,1.01003015667,0.119305679508,0.485,0.45,2,2,1,105,0
0.339921339042,1.05488220284,0.0318223125684,-0.0724223268571,0.429,0.45,0,1,-1,106,0
0.151782982457,0.0837350012262,1.00142034779,-0.00135283009563,0.357,0.45,1,2,-1,107,0
1.08715207346,0.139491701858,-0.0153975561926,-0.041385179226,0.404,0.45,0,0,2,108,0
0.116267117229,0.108582406846,1.05919243176,0.0838979641179,0.321,0.45,2,2,2,109,0
1.08310338643,0.129089695016,0.118308364218,0.0327302034248,0.337,0.45,1,0,-1,110,0
0.122939233799,0.0474250826494,0.100439365523,0.179711239649,0.7,0.45,3,-1,0,112,0
0.337110118848,1.10801560362,0.0447650091276,0.000955806093307,0.42,0.45,1,1,2,112,0
0.0555517177693,0.0556450628924,1.22015027587,0.155600122561,0.424,0.45,2,2,2,113,0
0.21609590877,0.00925192709267,0.12120637974,1.02880624056,0.42,0.45,3,3,2,114,0
0.260805822532,0.0364267704649,1.06889889645,0.0364917517807,0.464,0.45,2,2,1,115,0
1.04318215346,0.000618539265629,0.0240861529023,-0.122885174161,0.385,0.45,0,0,2,116,0
0.110924853804,0.0124276507457,0.69887817859,1.05561214331,0.398,0.45,3,3,2,117,0
1.0251031193,0.0477096129055,0.028180461561,0.0217392239566,0.389,0.45,0,0,2,118,0
0.573376332602,1.14541422617,0.0388728994089,0.150045199737,0.511,0.45,1,1,1,119,0
1.03208952382,0.568309837296,-0.000801844998481,0.0233354070271,0.426,0.45,0,0,2,120,0
0.105785361509,0.0807684227901,1.10741096137,-0.0196748560255,0.335,0.45,2,2,2,121,0
0.345058251898,0.0230086480546,0.114311259162,1.0022259261,0.462,0.45,3,3,1,122,0
0.361101157909,1.12708848155,0.0417589847352,0.0351958264828,0.408,0.45,1,1,2,123,0
0.130247555794,0.0382699341138,1.06499304843,-0.128941954689,0.397,0.45,2,2,2,124,0
0.793007411925,1.08889858739,0.0880203702967,-0.0774657043864,0.368,0.45,1,1,2,125,0
1.02571749581,0.117567179424,0.0628680816858,-0.0982830638341,0.205,0.45,3,0,-1,126,0
1.06259858584,0.115585247938,0.0497098535845,0.0273462039173,0.301,0.45,0,0,2,127,0
1.02641282428,0.167074808821,0.00622835347088,-0.0974245055764,0.36,0.45,1,0,-1,128,0
1.0325062422,0.245089104003,-0.0064470290309,-0.103323043404,0.375,0.45,0,0,2,129,0
0.166033417747,0.0316076711967,0.0264954450901,-0.0054113492467,0.7,0.45,3,-1,0,131,0
0.291980080061,0.0813246615316,1.09173492541,0.0291962589176,0.36,0.45,2,2,2,131,0
1.05273978097,0.506846240657,0.0377630537593,-0.0566757114002,0.298,0.45,0,0,2,132,0
0.119418822273,0.026971619746,0.0416037342662,0.161866085526,0.7,0.45,3,-1,0,134,0
0.291260706357,0.121396948204,1.07198885858,0.0696128897476,0.426,0.45,2,2,2,134,0
0.259467249111,1.03614924972,0.0560976408996,-0.027837307467,0.377,0.45,1,1,2,135,0
0.147100698226,0.0263886525215,1.09271197472,-0.0798903717119,0.403,0.45,2,2,2,136,0
0.279662307483,0.030847524918,0.347503352333,1.00531840294,0.59,0.45,3,3,1,137,0
0.396769494523,1.06706333043,0.00588633301565,-0.00147862624479,0.478,0.45,1,1,1,138,0
1.12987777681,0.107718584411,0.0187163801364,-0.128312570056,0.385,0.45,0,0,2,139,0
0.200100685666,0.130446668067,1.03466844678,-0.0303742081249,0.336,0.45,2,2,2,140,0
1.10727341647,0.0839040005026,0.0683402127712,0.0136144814069,0.364,0.45,0,0,2,141,0
0.44552426526,1.12606810623,0.0441628565504,0.0302567689918,0.377,0.45,1,1,2,142,0
0.0770520466925,0.0102325515164,0.0586105770457,0.187880728061,0.7,0.45,3,-1,0,144,0
1.04403425768,0.148585900001,0.00505532680676,-0.0289101229635,0.456,0.45,0,0,1,144,0
0.405200447313,0.149073674444,0.0449957528747,1.02177946187,0.469,0.45,3,3,1,145,0
0.559040527588,1.02562889008,0.179839717708,0.0483527253902,0.596,0.45,1,1,1,146,0
0.253497976906,0.0527557877174,1.05648862104,0.293141823541,0.52,0.45,2,2,1,147,0
0.284333967783,1.05044997503,0.0501707735792,-0.0470085835205,0.471,0.45,1,1,1,148,0
0.146650340617,0.0111041967403,0.426925996818,1.12244009688,0.433,0.45,3,3,2,149,0
0.13080252704,0.0672589784982,1.04583154269,0.0817902476213,0.523,0.45,2,2,1,150,0
1.01440047854,0.0516026130952,0.055848857401,-0.0639303558804,0.317,0.45,0,0,2,151,0
0.147945802515,0.0416277375211,1.05344783762,-0.0220057972036,0.282,0.45,2,2,2,152,0
0.313832150154,0.0125410979463,0.00350847836685,1.05653933181,0.324,0.45,3,3,2,153,0
1.18447310111,0.0172260959495,0.00855063946533,-0.0786741842991,0.309,0.45,0,0,2,154,0
0.370039010406,1.18881025644,0.219441255851,0.0741799447321,0.487,0.45,1,1,1,155,0
1.21043473175,0.185906179799,0.00477199077047,0.0473934426674,0.504,0.45,0,0,1,156,0
0.152873065521,0.0369261215078,0.213387721559,1.00508776988,0.484,0.45,3,3,1,157,0
0.121126419883,0.161592317953,1.09732569547,0.174283458213,0.508,0.45,2,2,1,158,0
0.32994870138,1.02000380624,-0.0303654304599,0.0430144484716,0.376,0.45,1,1,2,159,0
0.158078246012,0.0361696365504,1.00507599452,0.0797629221328,0.4,0.45,2,2,2,160,0
0.131394870589,0.0447487332449,0.175486649691,1.08635808853,0.468,0.45,3,3,1,161,0
0.145822972873,0.0448000980246,1.07414212036,0.0883455411904,0.506,0.45,1,2,-1,162,0
0.260260597027,0.0293151331274,-0.0311499755268,1.03751065254,0.584,0.45,3,3,1,163,0
1.14368077522,0.0573677129157,0.0362933584665,-0.00977607852122,0.437,0.45,0,0,2,164,0
0.347440292155,1.17568740009,0.00398369541853,-0.0330045046471,0.411,0.45,1,1,2,165,0
1.05033975221,0.115254256431,0.0155859630025,-0.00564914249052,0.368,0.45,0,0,2,166,0
0.139451033014,0.0901154564104,1.10087975608,0.144834097919,0.328,0.45,2,2,2,167,0
1.00964378146,0.741364279255,0.0397785698782,0.0149188953515,0.406,0.45,0,0,2,168,0
0.225951147602,1.07791631977,0.00527104449479,0.0884048937913,0.36,0.45,1,1,2,169,0
0.0385043260022,0.0788409890788,1.00858352707,-0.00190578842817,0.326,0.45,2,2,2,170,0
0.147832441864,0.0378515122623,0.0730091061409,1.0061116256,0.522,0.45,3,3,1,171,0
0.105560524933,0.0291443610841,1.03810136259,0.0504793265011,0.453,0.45,2,2,1,172,0
0.286172546826,1.08830288643,0.0359343431246,0.00325703936638,0.386,0.45,1,1,2,173,0
0.0306644214806,0.0127945430298,0.512979532753,1.08396106851,0.399,0.45,3,3,2,174,0
0.750347260053,1.02854619878,0.0169994897113,0.0225914662428,0.437,0.45,1,1,2,175,0
1.09541119831,0.14774868431,0.0193703924768,-0.0256583421141,0.316,0.45,0,0,2,176,0
0.086692602675,0.0435490154636,1.07793552737,-0.0261630151427,0.339,0.45,2,2,2,177,0
1.03037207434,0.0712714187208,0.0734425064634,-0.0152522091014,0.338,0.45,0,0,2,178,0
0.140414524379,0.0459685840438,0.123841837692,1.06565063059,0.424,0.45,3,3,2,179,0
1.1366875465,0.10069120892,0.0283365783771,0.0232314486112,0.358,0.45,0,0,2,180,0
0.259129339321,0.0634841816559,1.02746501379,0.0166090845201,0.316,0.45,2,2,2,181,0
0.218870865774,0.0480879423778,0.0838903250178,0.0977766923141,0.7,0.45,3,-1,0,183,0
0.437277494298,1.05632711443,0.0151637077855,-0.0355978133759,0.509,0.45,1,1,1,183,0
0.0433683280077,0.0236172155136,1.03664878878,0.068097478098,0.449,0.45,2,2,2,184,0
0.356113727966,1.05159814975,0.0392571534751,0.0375429804559,0.379,0.45,1,1,2,185,0
0.0742945432976,0.0149103188026,0.189742071233,1.00853818435,0.384,0.45,3,3,2,186,0
0.133338583447,0.31939768161,1.04979924907,0.0651118780988,0.485,0.45,2,2,1,187,0
1.00052635765,0.316860364308,-0.0179220556432,-0.00920380265632,0.428,0.45,0,0,2,188,0
0.20133603843,0.0645915793462,0.090395345524,-0.107037537827,0.7,0.45,3,-1,0,190,0
1.02231076663,0.148132748774,0.0396417831773,-0.0102439076343,0.484,0.45,0,0,1,190,0
0.568149031149,1.14784551158,0.00733324621941,-0.0685889064792,0.42,0.45,1,1,2,191,0
1.00233610319,0.168808034679,0.0214487750633,-0.0198131608248,0.389,0.45,0,0,2,192,0
0.279783818152,1.1024554257,0.0100680704947,0.000313622335385,0.456,0.45,1,1,1,193,0
0.263443402034,0.0778271146793,0.114768288939,1.00059670334,0.502,0.45,3,3,1,194,0
0.243021848683,0.0392292361694,1.07631656883,0.122172251345,0.49,0.45,2,2,1,195,0
0.340252721407,1.00058771067,0.0429153329959,-0.0401995892151,0.362,0.45,1,1,2,196,0
0.0690540748799,0.0279206551813,1.05930492367,-0.0456043832263,0.38,0.45,2,2,2,197,0
0.208546932534,-0.0100902323507,0.129602907451,1.01015656482,0.419,0.45,3,3,2,198,0
1.11645407766,-0.0148629388758,0.0557564863542,0.00515172705248,0.345,0.45,0,0,2,199,0
0.0267671036018,-0.0155396865858,1.02296271149,0.0914793921695,0.35,0.45,3,2,-1,200,0
0.541356499328,1.0400215932,-0.0227797858186,0.105406770503,0.453,0.45,1,1,1,201,0
1.18151078908,0.126724364724,-0.0233590271468,-0.0363274521049,0.383,0.45,0,0,2,202,0
0.311161814815,0.110023381526,1.07584276589,0.0487557948175,0.342,0.45,2,2,2,203,0
1.05056811681,0.0846156255429,0.0560944552896,0.017798153858,0.467,0.45,0,0,1,204,0
0.117475343519,0.0160585785978,0.340471990797,1.11203626092,0.465,0.45,3,3,1,205,0
0.237612129099,0.0380270805061,1.02993450577,0.0563627501683,0.484,0.45,2,2,1,206,0
0.421750185846,1.08051726876,0.0502225840398,-0.0814310364038,0.474,0.45,1,1,1,207,0
0.260938228718,0.0172824741361,0.0157437902001,1.03563438834,0.513,0.45,3,3,1,208,0
0.33933859652,1.00716805619,0.0716319184883,-0.0700232715361,0.492,0.45,1,1,1,209,0
0.129838121715,0.0353369482356,1.11193730409,0.0174772084805,0.391,0.45,2,2,2,210,0
1.10331279907,0.0683615267838,0.0269135414224,-0.00760863180844,0.409,0.45,0,0,2,211,0
0.188734307556,0.096544389863,1.10491345558,0.0491032597023,0.366,0.45,2,2,2,212,0
0.0879799389686,0.0165245847314,0.776443340466,1.09953614879,0.401,0.45,3,3,2,213,0
1.09182678907,0.00740650927223,-0.00432472422979,-0.0217965969044,0.355,0.45,0,0,2,214,0
0.241557127591,0.00227675117336,-0.00546847456049,-0.0617669614272,0.7,0.45,1,-1,0,216,0
1.06717326044,0.114417646429,-0.0203531031978,-0.00694012655002,0.522,0.45,0,0,1,216,0
1.32544768594,1.0558214149,0.738398132428,0.934799173692,0.00600000000012,0.45,3,0,-1,217,1
1.03747778633,0.246806518808,0.111719016925,0.316329371462,0.355,0.45,0,0,2,218,1
0.370367696347,0.155236281675,1.03544660718,0.319099094818,0.306,0.45,2,2,2,219,1
1.01077540293,0.160461052563,0.0372345696657,0.0832901163988,0.301,0.45,1,0,-1,220,1
0.298266346431,0.172448075194,1.06764578974,0.217721347491,0.345,0.45,2,2,2,221,1
0.472657876787,0.0977282124427,0.0502336216146,0.107519098266,0.7,0.45,0,-1,0,223,1
1.02290957469,0.0465634351495,0.0386066111583,0.136567468456,0.224,0.45,1,0,-1,223,1
1.13238512783,0.233188819236,0.0178373926029,0.120234954482,0.368,0.45,0,0,2,224,1
0.440483050061,0.090006207861,0.173466352525,1.07852919286,0.459,0.45,3,3,1,225,1
0.302899377702,0.0572482451523,1.00762734129,0.152103432559,0.417,0.45,2,2,2,226,1
0.363877741651,0.186079642446,-0.00488923293724,1.0164125733,0.483,0.45,3,3,1,227,1
0.573677919398,1.03691374604,0.00456667853081,0.0833721119277,0.36,0.45,1,1,2,228,1
0.329494423433,0.0179490370446,0.0495844228099,1.01438725027,0.498,0.45,3,3,1,229,1
0.527450404969,1.06922517064,0.0104479558039,0.114065924399,0.423,0.45,1,1,2,230,1
1.0123671827,0.0920296605573,-0.0192710079418,0.037689640491,0.283,0.45,0,0,2,231,1
0.256794096149,0.107692881148,1.01456814333,0.127871209017,0.376,0.45,2,2,2,232,1
1.09679579578,0.154561925494,-0.0264970037381,0.0178500212978,0.387,0.45,0,0,2,233,1
0.598177315533,1.09935118093,0.140467742104,0.0741677668638,0.434,0.45,1,1,2,234,1
0.208059806751,0.0974233412042,1.00434528539,0.0501615630551,0.319,0.45,2,2,2,235,1
0.348691319728,1.08272664202,-0.0136909629677,0.0605262616141,0.463,0.45,1,1,1,236,1
0.281075207688,0.0850568739242,0.0246825739086,1.03640004036,0.461,0.45,3,3,1,237,1
1.01679085285,0.353505873294,0.00367916264225,0.0152705289806,0.361,0.45,0,0,2,238,1
0.241404342398,0.0257530685992,1.01139946309,0.401174457359,0.423,0.45,3,2,-1,239,1
0.246788152751,0.0171316578745,1.10771233995,0.0544276055661,0.363,0.45,2,2,2,240,1
0.229398224854,0.188723483223,0.00862715017343,1.10356156065,0.514,0.45,3,3,1,241,1
0.557881741292,1.06151073429,-0.00498154555343,0.106860322066,0.446,0.45,1,1,2,242,1
1.03679428421,0.135898419019,-0.0205251783644,0.0953327180241,0.294,0.45,0,0,2,243,1
0.356741240082,0.105249767883,1.04151849017,0.134585970842,0.293,0.45,2,2,2,244,1
0.354839532834,1.09014489324,0.00117598451462,0.0816787470731,0.324,0.45,1,1,2,245,1
0.247486199094,0.0507251464761,1.00232904931,0.0443367143747,0.41,0.45,2,2,2,246,1
1.09186135495,0.0877810248799,-0.0223802337348,0.0775218125057,0.332,0.45,0,0,2,247,1
0.298562374796,0.0682133890343,0.306664392915,1.08011216801,0.357,0.45,3,3,2,248,1
0.130487665348,0.0570446879105,1.07999797083,0.12335711319,0.421,0.45,2,2,2,249,1
0.169598969052,0.0399340025915,-0.0233080952179,1.02698338318,0.545,0.45,3,3,1,250,1
1.04813969606,0.157755418758,0.000772082612324,0.00513525244814,0.406,0.45,0,0,2,251,1
0.474767466794,1.26427773588,-0.011400345924,-0.00732230077852,0.409,0.45,1,1,2,252,1
0.170776884424,0.059548797122,-0.0116658489308,1.09911362863,0.359,0.45,3,3,2,253,1
1.01168418605,0.127367360201,0.00321053046243,0.00091879686443,0.407,0.45,0,0,2,254,1
0.234574802073,0.119126087416,1.03355783241,0.0724356220228,0.32,0.45,2,2,2,255,1
0.423353561994,1.62275819876,-0.00746798056232,0.0267383199274,0.36,0.45,1,1,2,256,1
1.08548531288,0.112084064039,-0.0171610883306,0.039796419628,0.309,0.45,0,0,2,257,1
0.279096033436,1.15148273674,-0.0193574648926,0.212486012043,0.499,0.45,1,1,1,258,1
0.15595113609,0.105954885219,1.02210614201,0.0753910788554,0.475,0.45,2,2,1,259,1
0.244226899217,0.0483139047897,-0.0089273122273,1.01022575691,0.395,0.45,3,3,2,260,1
0.466207494356,1.06194936153,0.00768626732737,0.0290737768014,0.379,0.45,1,1,2,261,1
0.100124118337,0.00223570797505,0.0948449550882,1.10861253378,0.424,0.45,3,3,2,262,1
0.362548473411,0.119316826647,1.02082758357,0.113487223737,0.405,0.45,2,2,2,263,1
1.03663119646,0.120974050295,-0.0275250318882,0.0779855380733,0.33,0.45,0,0,2,264,1
0.146045722079,0.0750177822714,1.06028494089,0.123976508989,0.341,0.45,3,2,-1,265,1
0.327429864702,1.06024422105,-0.014986207305,0.0428892369353,0.35,0.45,2,1,-1,266,1
0.41063130982,1.21415090841,-0.024854307354,0.0235739872408,0.335,0.45,1,1,2,267,1
1.02036977014,0.119160232653,-0.0378503871333,0.028824512319,0.401,0.45,0,0,2,268,1
0.359016798738,0.17451885191,1.05680765219,0.156238021576,0.339,0.45,2,2,2,269,1
1.12112237068,0.114305499357,0.0241785232779,0.0354195858264,0.405,0.45,0,0,2,270,1
0.534738176247,1.14966358618,0.0099146489108,0.0339258871697,0.405,0.45,1,1,2,271,1
0.249269721102,0.132992135518,0.0274916114216,1.02703019413,0.459,0.45,3,3,1,272,1
0.599488243645,1.03011075694,0.00336442643155,0.0536982397597,0.443,0.45,1,1,2,273,1
0.17737731317,0.0509475552251,1.07345148757,0.0385610997154,0.475,0.45,2,2,1,274,1
0.228180365614,0.0126866417543,0.154452795057,1.0344145001,0.605,0.45,3,3,1,275,1
1.08243984331,0.0588089750333,-0.00282924348228,0.0663732542278,0.416,0.45,0,0,2,276,1
0.263152537192,0.0255253648456,0.00538708535786,1.01175731148,0.485,0.45,3,3,1,277,1
1.02204204248,0.0891059689612,-0.00234353641424,-0.0439593308823,0.379,0.45,0,0,2,278,1
0.640031780456,1.09774071583,0.0401953962839,0.0726833124889,0.429,0.45,1,1,2,279,1
0.132823510891,0.0868428482155,1.07869384941,0.0984368058078,0.333,0.45,2,2,2,280,1
0.235547051491,1.1004577525,0.0189828019255,0.145329737345,0.496,0.45,1,1,1,281,1
1.05545769308,0.150213138512,0.00247483729969,0.0263632328212,0.301,0.45,0,0,2,282,1
0.241575901561,0.163615147175,1.10809340103,0.0330828634083,0.354,0.45,2,2,2,283,1
0.430357099233,0.100039735819,-0.0135708724286,1.01157368373,0.441,0.45,3,3,2,284,1
0.199264267209,0.0724584288495,1.0212285507,0.0892874354551,0.418,0.45,2,2,2,285,1
1.01146204188,0.122188389715,-0.00926531496479,0.00284988060705,0.332,0.45,0,0,2,286,1
0.189252012371,0.0595027217348,0.0222439424892,0.038581768327,0.7,0.45,3,-1,0,288,1
0.457357203364,1.20084611803,0.00286018755136,0.0177128264328,0.487,0.45,1,1,1,288,1
0.409847112382,0.226096413285,0.0850433984374,1.00094255004,0.555,0.45,3,3,1,289,1
0.286775196158,1.11001521616,0.0692691990124,0.16763377026,0.586,0.45,1,1,1,290,1
0.0169245980898,-0.0116122344357,1.06935315117,0.242516728899,0.564,0.45,2,2,1,291,1
1.02537071062,0.135223479774,0.025586410415,0.00391744862875,0.467,0.45,0,0,1,292,1
0.0928973198786,0.0833637138707,1.02332582841,0.173939797629,0.396,0.45,1,2,-1,293,1
1.07521779417,0.0759986892279,0.0100315302163,-0.0256434565578,0.537,0.45,0,0,1,294,1
0.159712895046,0.101811890008,1.0436210975,0.143115938096,0.395,0.45,2,2,2,295,1
0.179291884128,0.0388228233467,0.0765610429812,1.08264366115,0.409,0.45,3,3,2,296,1
0.191683600518,0.0584176132895,1.05583890796,0.0433122521594,0.346,0.45,2,2,2,297,1
0.414626812329,1.09599416935,-0.00775988555647,0.0229892655846,0.444,0.45,1,1,2,298,1
0.159005984995,0.0178290052642,0.0105790468843,1.03305657962,0.531,0.45,3,3,1,299,1
1.01058195156,0.148817542884,-0.0136429829801,0.0254304170459,0.485,0.45,0,0,1,300,1
0.157231010301,0.0613504539244,0.103743009579,1.0480256658,0.522,0.45,3,3,1,301,1
1.00988443053,0.186225317955,0.0042585802053,0.0130733147372,0.507,0.45,0,0,1,302,1
0.521901087471,1.07479372803,0.0113939227221,0.0469865889028,0.412,0.45,1,1,2,303,1
0.215082494261,0.0803507035234,1.08543427086,0.068825729937,0.34,0.45,2,2,2,304,1
0.478367380491,1.07546025887,-0.0103833462703,0.0542372677692,0.519,0.45,1,1,1,305,1
1.01989410263,0.227161019108,0.0167834026013,0.0865277200089,0.334,0.45,0,0,2,306,1
0.251020745057,0.173141795737,1.07515134546,0.0112842829954,0.284,0.45,2,2,2,307,1
1.07342656935,0.0665099144396,-0.000516969214213,0.198160682462,0.47,0.45,0,0,1,308,1
0.289140468415,0.104297116173,0.0483488509259,1.01810053161,0.471,0.45,3,3,1,309,1
0.116936002858,0.0573420349378,1.04990097982,0.198166059391,0.471,0.45,2,2,1,310,1
0.172775011039,0.0264568311812,0.365103807718,1.14861741512,0.481,0.45,3,3,1,311,1
0.368240765632,1.06515884926,0.184838544489,0.0222831897371,0.597,0.45,1,1,1,312,1
0.110190050303,0.0597369606268,0.0177952347622,1.06116903676,0.539,0.45,3,3,1,313,1
0.469374583769,1.14562738307,0.0562176935949,0.0398558866984,0.448,0.45,1,1,2,314,1
1.07500220014,0.156636897188,-0.000617743571003,0.0299323881666,0.318,0.45,0,0,2,315,1
0.180602736252,0.0951543252485,1.2246270516,0.0397966993581,0.357,0.45,2,2,2,316,1
1.10845962419,0.105175848914,0.0321480223399,0.0379051756763,0.394,0.45,0,0,2,317,1
0.348841374489,1.16892633076,0.076453505538,0.020351372465,0.447,0.45,1,1,2,318,1
0.0684126953102,0.492564747939,1.07274323271,0.0838623149845,0.502,0.45,2,2,1,319,1
0.107772522616,0.0253494385509,0.121445360889,1.12398192908,0.447,0.45,3,3,2,320,1
1.11305797708,0.128170315814,-0.00360993939714,0.0600099669775,0.407,0.45,0,0,2,321,1
0.176118966313,0.0184357663871,0.141944832417,1.03919303511,0.517,0.45,3,3,1,322,1
0.209461772029,0.0440972969068,1.00674753026,0.0931196887164,0.408,0.45,2,2,2,323,1
0.197192838724,1.11335366661,-0.0155813008897,0.111334706644,0.481,0.45,1,1,1,324,1
0.486569044281,0.111000437483,0.0309764181709,0.0963420233737,0.7,0.45,3,-1,0,326,1
0.564111263548,0.0882396637768,0.0153308063489,1.00854368753,0.168,0.45,2,3,-1,326,1
0.218057710233,0.180548797776,0.351470117799,0.181245338539,0.7,0.45,0,-1,0,328,1
0.316121074364,0.319193165376,0.509704139862,0.244309785743,0.7,0.45,1,-1,0,329,1
0.331567547411,0.277343682102,0.248374635522,0.0866045612089,0.7,0.45,2,-1,0,330,1
0.269991425365,1.059129856,0.260877301219,0.149511333116,0.569,0.45,1,1,1,330,1
1.10935272955,0.2496569849,0.149421229078,0.0800230523797,0.375,0.45,0,0,2,331,1
0.238375047738,0.0943718299935,0.380807685053,1.07696519952,0.497,0.45,3,3,1,332,1
0.495818510772,1.13386125769,0.0658970757498,-0.00964163909544,0.384,0.45,1,1,2,333,1
0.408807511201,0.143999657882,0.0381388891374,1.07413935898,0.437,0.45,3,3,2,334,1
1.00045385737,0.180213590762,0.0995682812255,-0.0152173989972,0.335,0.45,0,0,2,335,1
0.315933066618,0.140658561417,1.06409061709,0.1169671484,0.278,0.45,2,2,2,336,1
0.303119670095,0.0896367011164,0.0620365018842,1.10452334633,0.408,0.45,3,3,2,337,1
0.237045681599,0.057783833561,1.13865614994,-0.0415286357237,0.436,0.45,2,2,2,338,1
0.338780895564,1.05328647204,0.0173229438419,0.00103004579791,0.39,0.45,0,1,-1,339,1
0.370991791009,1.04019432221,0.0152556200731,0.0322579791179,0.426,0.45,1,1,2,340,1
0.180319818341,0.0866121525433,1.09160168948,-0.034954448877,0.371,0.45,2,2,2,341,1
0.105859702855,1.02033932451,0.00761938034555,-0.0393565397726,0.493,0.45,1,1,1,342,1
1.11605294485,0.133128681966,0.0175998123423,-0.0648974125957,0.354,0.45,0,0,2,343,1
0.225565183874,0.0442902907807,0.212315114179,1.00905091025,0.475,0.45,3,3,1,344,1
0.448517217719,1.01980486201,0.0216635739605,-0.112774682869,0.378,0.45,1,1,2,345,1
0.423975387203,0.103522806012,0.071216393889,1.06353849761,0.472,0.45,3,3,1,346,1
1.11464214611,0.197532631317,0.0659327007407,-0.0587629618978,0.433,0.45,0,0,2,347,1
0.212192114092,0.155033254799,1.05968946369,0.0400116771009,0.376,0.45,2,2,2,348,1
0.23847915913,0.0958596570968,0.0870337104837,1.05891269788,0.534,0.45,3,3,1,349,1
0.607526100339,1.0133807583,0.0522864259768,-0.0161478188396,0.648,0.45,1,1,1,350,1
0.100764327933,0.00211083259965,1.05891484036,0.0219327586383,0.457,0.45,2,2,1,351,1
1.09015077913,0.201143654694,0.00902070940157,0.0155800470431,0.451,0.45,0,0,1,352,1
0.172193440766,1.1265012385,-0.020479677618,-0.0398635041828,0.55,0.45,1,1,1,353,1
1.1036618573,0.202252755709,0.00761088918095,-0.0912972736949,0.42,0.45,0,0,2,354,1
0.185789169537,0.109738877805,1.1070989836,-0.0719119714343,0.358,0.45,2,2,2,355,1
0.230475358686,1.01187477779,0.00668200753534,-0.0741142678315,0.447,0.45,1,1,2,356,1
0.109096790842,0.0726472499581,0.0621829947399,1.05600549702,0.518,0.45,3,3,1,357,1
1.01733810231,0.185189411931,0.0216876111661,-0.0598764721843,0.415,0.45,0,0,2,358,1
0.107280598778,0.0553291216446,1.07945611747,-0.0984985977327,0.377,0.45,3,2,-1,359,1
0.128170054218,0.0702576085022,1.02711185239,-0.00385605737789,0.342,0.45,2,2,2,360,1
0.107710577259,0.0427698324686,0.0273802619223,1.10272009293,0.482,0.45,3,3,1,361,1
0.0663433377309,0.0479495438245,1.10963040994,-0.156744939006,0.45,0.45,2,2,1,362,1
0.559337938736,1.08470064994,0.121650518391,0.0522128681086,0.376,0.45,1,1,2,363,1
1.10256940024,0.102840017103,-0.0137362038441,-0.0763676257291,0.303,0.45,0,0,2,364,1
0.0810461385333,0.059135055747,1.03005855256,-0.00312098443565,0.348,0.45,2,2,2,365,1
1.0880609057,0.0457956548058,0.0125593359997,-0.0423072087638,0.427,0.45,0,0,2,366,1
0.171139012994,1.06398924289,0.0717673185934,-0.0205541214712,0.447,0.45,1,1,2,367,1
0.0654044275731,0.106045495349,1.01676240413,-0.0204528022,0.44,0.45,2,2,2,368,1
0.0821536841436,0.0156214592381,0.150032843416,1.10186292404,0.392,0.45,3,3,2,369,1
1.0216669727,0.0883241231884,0.000246838908173,-0.0775932393395,0.317,0.45,0,0,2,370,1
0.171957190308,0.0178607861748,0.174089209811,1.01597744648,0.566,0.45,3,3,1,371,1
0.298664805719,0.0177293633395,0.100191078981,1.07738966161,0.0900000000002,0.45,1,3,-1,372,1
0.301456835619,0.104511974736,-0.000201748806008,1.08246655281,0.434,0.45,3,3,2,373,1
0.292326006772,1.01109122935,-0.0132274915108,-0.0234880431963,0.366,0.45,1,1,2,374,1
1.01822285948,0.107407386584,-0.0292981122031,-0.126670288888,0.336,0.45,0,0,2,375,1
0.225200606273,0.100693797063,1.02260705886,0.0283254099055,0.351,0.45,2,2,2,376,1
0.397347512278,1.19462683861,-0.00842539201421,-0.0770256595661,0.463,0.45,1,1,1,377,1
1.05434272447,0.0481652462769,-0.00172274919589,-0.0687386546468,0.247,0.45,2,0,-1,378,1
1.10543064,0.146808043154,-0.00570688699947,0.0154361358124,0.348,0.45,0,0,2,379,1
0.0780253785141,0.00990120027565,0.366781144053,1.03590248316,0.505,0.45,3,3,1,380,1
0.29639270021,0.126595652221,1.05709597095,0.0557541439528,0.417,0.45,2,2,2,381,1
0.131999509392,0.0167052778602,0.0548300585072,1.06547739501,0.504,0.45,3,3,1,382,1
1.18344208128,0.107573692555,0.00794013830856,-0.112566951495,0.483,0.45,0,0,1,383,1
0.263025033191,1.03312077681,0.021242526585,-0.0708490290693,0.479,0.45,1,1,1,384,1
0.252110611739,0.0474347914791,0.283360639206,1.04458702286,0.623,0.45,3,3,1,385,1
0.267832533203,1.02291904073,-0.00766998011255,-0.119323301091,0.627,0.45,1,1,1,386,1
0.0696895152178,-0.00408906011315,1.03429584949,-0.146104511175,0.519,0.45,2,2,1,387,1
1.02822776819,0.0288870124648,-0.0174348185527,-0.0876556537683,0.429,0.45,0,0,2,388,1
0.0342015754717,0.0728024549877,1.07595562305,0.0321980050987,0.352,0.45,2,2,2,389,1
0.282469042895,1.02493663205,-0.00564943806181,-0.0860025555214,0.39,0.45,1,1,2,390,1
1.0342371495,0.02326542819,-0.0227515398483,-0.0962208431105,0.341,0.45,0,0,2,391,1
0.55693915501,1.09507217131,-0.00496424249478,-0.0386737538034,0.485,0.45,1,1,1,392,1
0.0890594937849,0.0470203087957,0.0468367897282,1.00999397943,0.507,0.45,3,3,1,393,1
0.138907714203,0.0505736270555,1.03967347014,0.0269721414352,0.455,0.45,2,2,1,394,1
0.0449269239718,0.0188869849018,0.0334646966407,1.06519559733,0.489,0.45,3,3,1,395,1
1.09600764865,0.109957126886,0.0161122437113,-0.0917153753402,0.455,0.45,0,0,1,396,1
0.0680722809347,0.0443402852564,0.0515353008383,1.04764481877,0.464,0.45,3,3,1,397,1
1.01300997512,0.143010924013,0.00943313522205,-0.153654404835,0.448,0.45,0,0,2,398,1
0.116298656474,0.0779962391363,1.09507979341,0.06386654331,0.406,0.45,2,2,2,399,1
0.384652235248,1.15896818183,-0.0155168385828,0.0188111752203,0.369,0.45,1,1,2,400,1
1.04183011952,0.0463039718181,-0.00762826755255,-0.0385975568408,0.3,0.45,0,0,2,401,1
0.160107086369,1.23995702255,-0.0366255973955,0.0165719910578,0.478,0.45,1,1,1,402,1
0.116284826472,0.0823890110591,1.05264115396,-0.00384128330935,0.371,0.45,2,2,2,403,1
0.157333785548,0.0453305159758,0.140275469886,1.01922588876,0.306,0.45,3,3,2,404,1
0.404394317931,1.15429447178,-0.0128113604976,-0.112838198721,0.436,0.45,1,1,2,405,1
0.118437255755,-0.00175883258299,0.0714546764641,1.03921939594,0.487,0.45,3,3,1,406,1
0.0332858936065,0.104044107969,1.08144713527,0.100682282659,0.683,0.45,2,2,1,407,1
1.09081878103,-0.0202173679323,-0.00405625730413,-0.0270674259121,0.45,0.45,0,0,1,408,1
0.0694550591314,-0.023159693142,0.205354410432,1.06195647469,0.495,0.45,3,3,1,409,1
0.117676487792,0.0527708995595,1.018951918,0.102171438769,0.499,0.45,2,2,1,410,1
1.06989188272,0.0215616924097,0.00298525812734,-0.090439815604,0.436,0.45,0,0,2,411,1
0.153099904865,0.127181393118,1.01213000796,-0.0344327099639,0.462,0.45,1,2,-1,412,1
0.105594652181,0.071810916347,1.07802920071,-0.0304530729383,0.407,0.45,2,2,2,413,1
0.196646209365,1.09196757081,-0.00589530050369,-0.0432595722087,0.543,0.45,1,1,1,414,1
1.02870976143,0.168617386981,0.0625877862409,-0.0694615311801,0.395,0.45,0,0,2,415,1
0.116008515016,0.0978824558364,0.0969570082495,1.02114251717,0.438,0.45,3,3,2,416,1
1.00707121211,0.191895278483,0.00995320000884,-0.045088490603,0.336,0.45,0,0,2,417,1
0.0311775035711,0.0992676030374,1.18979587775,0.131946692187,0.399,0.45,2,2,2,418,1
0.199312301979,0.0500024709033,0.0443283712143,1.05131579384,0.482,0.45,3,3,1,419,1
0.280919403962,1.01909686709,0.0389626885147,-0.0242097632919,0.587,0.45,1,1,1,420,1
0.0509043112479,0.0342998504735,0.021212060832,1.03273052925,0.47,0.45,3,3,1,421,1
0.0692696965013,1.02576596958,-0.0157180294875,-0.128621576271,0.433,0.45,1,1,2,422,1
-0.00373826478828,-0.00721470476364,1.12701572662,-0.00911268364224,0.492,0.45,2,2,1,423,1
1.07521865414,-0.00775677611633,0.0556476982612,-0.0898331687177,0.482,0.45,0,0,1,424,1
0.314202544194,1.16062754131,0.0684453803569,0.0262481244556,0.573,0.45,1,1,1,425,1
1.00474053763,0.145307087914,0.0248318974127,0.00217584057,0.508,0.45,0,0,1,426,1
0.138875518359,0.0598965609811,1.06766569905,-0.0731901186055,0.377,0.45,2,2,2,427,1
0.251181801568,0.0890779591352,0.125397495222,1.08924878649,0.371,0.45,3,3,2,428,1
1.05401006541,0.127621835232,0.0266026196019,-0.0975935334131,0.347,0.45,0,0,2,429,1
0.233748895637,0.0851206790552,0.0478495735568,1.08579914837,0.384,0.45,3,3,2,430,1
0.150084859825,0.0601898598529,1.04752125138,-0.049774163558,0.402,0.45,2,2,2,431,1
0.449350341844,1.08716474699,0.0633706631296,-0.0245772606006,0.45,0.45,1,1,1,432,1
0.0889381645927,0.0553388949043,0.0927234846383,1.01024267916,0.483,0.45,3,3,1,433,1
1.09448915194,0.317150237339,0.222226544138,0.248211359765,0.47,0.45,0,0,1,434,2
0.464498518705,0.241828533248,0.869139926013,1.09929651435,0.348,0.45,3,3,2,435,2
0.669105880515,1.09409679238,0.127816420572,0.262858020239,0.332,0.45,1,1,2,436,2
0.67396259281,0.451099510098,1.02610417698,0.319639734286,0.449,0.45,2,2,2,437,2
0.56197583398,0.1975169024,0.1143398972,1.07372649158,0.501,0.45,3,3,1,438,2
0.531958064764,0.0857453600062,1.01157600944,0.140546693971,0.445,0.45,2,2,2,439,2
1.00059799241,0.183228540597,0.160282060863,0.0201731907267,0.224,0.45,1,0,-1,440,2
0.539833614664,0.134502368553,1.02618034699,0.265955300977,0.373,0.45,3,2,-1,441,2
1.09095221635,0.140541389889,0.0392618714909,0.0206655861461,0.498,0.45,0,0,1,442,2
0.484841419761,0.132329432106,1.01909731514,0.0491962740193,0.355,0.45,2,2,2,443,2
1.0448990593,0.232372049827,0.0900573452229,0.0692498535235,0.417,0.45,0,0,2,444,2
0.639727581267,1.09118661227,0.175167677374,0.0561542433456,0.416,0.45,1,1,2,445,2
1.0297649608,0.252536189168,0.0486744433142,0.0666042768048,0.427,0.45,0,0,2,446,2
0.574172362681,0.183182115039,0.255908927266,1.04963181289,0.425,0.45,3,3,2,447,2
0.463559420213,0.112484548035,1.08454654145,0.0604969402274,0.413,0.45,2,2,2,448,2
0.731120433143,1.11777907824,0.0717530413847,-0.0303295454351,0.353,0.45,1,1,2,449,2
0.362950584675,0.0616547975567,1.06863062548,0.0783821151431,0.422,0.45,2,2,2,450,2
0.55826951128,0.132635609784,0.0991774951785,1.03179115499,0.457,0.45,3,3,1,451,2
0.559184247048,1.02481948012,-0.00306745279701,-0.0293720672436,0.435,0.45,1,1,2,452,2
1.09831003155,0.18119552999,0.0233726272564,-0.0553787638597,0.436,0.45,0,0,2,453,2
0.423974464235,0.162585797019,1.01673735965,0.00382579761146,0.322,0.45,2,2,2,454,2
1.04071493774,0.258828256295,0.115456082969,0.0313100408981,0.432,0.45,0,0,2,455,2
0.69617473608,1.12891304092,0.146608872281,0.0113856262384,0.408,0.45,1,1,2,456,2
0.326744144109,0.219460753193,0.0582459881598,0.183823418097,0.7,0.45,3,-1,0,458,2
1.02823427549,0.204682991372,-0.00464914705088,-0.0675887649316,0.442,0.45,0,0,2,458,2
0.533111390478,0.179560546041,0.0913596821759,1.0410046332,0.403,0.45,3,3,2,459,2
0.433337164025,0.197058602777,1.0832595861,0.0601918144958,0.348,0.45,2,2,2,460,2
0.471420077023,1.11633316869,0.117646809945,0.00606790623589,0.318,0.45,1,1,2,461,2
0.573265705607,0.258929929476,0.132001620731,1.08372989978,0.413,0.45,3,3,2,462,2
0.560909821938,1.03991022398,0.0590875544951,0.0396900187327,0.422,0.45,1,1,2,463,2
0.231439170376,0.169399894307,1.08019330304,0.0251583632885,0.333,0.45,2,2,2,464,2
1.05400533286,0.213380343036,0.0566452579775,0.0833515486174,0.286,0.45,0,0,2,465,2
0.473846951237,1.01824104744,0.329139457315,-0.00124710017161,0.438,0.45,1,1,2,466,2
1.05581924234,0.168090017048,0.0634432227043,-0.0255803858375,0.457,0.45,0,0,1,467,2
0.241954198154,0.133875558696,1.00325431733,-0.0505908460619,0.349,0.45,2,2,2,468,2
0.397027753775,0.146464181096,0.144080594225,1.13501200619,0.331,0.45,3,3,2,469,2
1.0008588147,0.71376235672,0.0225976639992,-0.116694108103,0.346,0.45,0,0,2,470,2
0.618255986976,1.00496911445,0.0813319384926,-0.0154206691271,0.373,0.45,1,1,2,471,2
0.379266764112,0.130917187642,0.267302956958,1.0191122183,0.481,0.45,3,3,1,472,2
0.394619665964,0.156312444825,1.01693975196,-0.0475557353942,0.42,0.45,2,2,2,473,2
0.330880466235,0.152673510549,1.0106695448,0.0753756362422,0.476,0.45,1,2,-1,474,2
0.217119623595,0.126325345954,1.09393109113,0.0180548658049,0.407,0.45,2,2,2,475,2
0.301783322322,0.089863459895,0.0847417692586,1.13459128014,0.421,0.45,3,3,2,476,2
1.00394852833,0.263342039066,0.0713243113912,-0.0793971267426,0.382,0.45,0,0,2,477,2
0.329052478249,0.092524465433,0.410222216988,1.0861411069,0.404,0.45,3,3,2,478,2
0.595414567693,1.07532086345,0.0130034019256,-0.0875037560919,0.381,0.45,1,1,2,479,2
1.02171087212,0.226342457409,0.0467554121447,-0.0356131676675,0.437,0.45,0,0,2,480,2
0.307658675113,0.145971262335,1.13851001224,-0.0388766905712,0.333,0.45,2,2,2,481,2
1.06386472196,0.239454665008,0.0280705863282,0.0891238750047,0.519,0.45,0,0,1,482,2
0.257002468547,0.0990781736513,1.03459299592,-0.00875205198512,0.419,0.45,2,2,2,483,2
0.306460098691,0.0864914179877,0.126577705411,1.13804437665,0.338,0.45,3,3,2,484,2
0.593441361544,0.1064472018,1.01987522847,0.0951959570769,0.473,0.45,1,2,-1,485,2
0.130658618116,0.0418599097998,0.203571786869,0.162212909179,0.7,0.45,3,-1,0,487,2
0.285005273198,0.0372476081228,0.146422105032,1.0590158938,0.0700000000003,0.45,2,3,-1,487,2
0.356575516546,0.167388397417,0.0370790384982,-0.118292307551,0.7,0.45,1,-1,0,489,2
0.40070456119,0.208639776127,0.0832630390078,-0.0711302458529,0.7,0.45,2,-1,0,490,2
1.00881922875,0.376697034742,0.18124306348,0.0676483231939,0.551,0.45,0,0,1,490,2
0.568851641524,1.01063128376,0.212845783665,0.0791505509244,0.518,0.45,1,1,1,491,2
1.10133500114,0.603809352646,0.0452781618337,-0.0190778720455,0.515,0.45,0,0,1,492,2
0.381881893518,0.174151401731,1.10614694407,0.0823844006115,0.387,0.45,3,2,-1,493,2
1.02627591377,0.18324848538,0.0489875003366,-0.0813836725239,0.446,0.45,0,0,2,494,2
0.343831291906,0.197721031774,1.11120084204,-0.0583802557009,0.404,0.45,2,2,2,495,2
0.292844802732,0.103591988079,0.176995080425,1.04374541217,0.354,0.45,3,3,2,496,2
0.490545679367,1.06643522625,0.0307275242354,-0.0846100337171,0.42,0.45,1,1,2,497,2
0.320758387443,0.076680116911,1.02962104485,-0.049470578788,0.471,0.45,2,2,1,498,2
1.0502277748,0.106679618087,0.0974997252466,-0.0440582454973,0.397,0.45,1,0,-1,499,2
0.30202880467,0.18291659999,0.0584607934061,-0.0421584764092,0.7,0.45,3,-1,0,501,2
0.592592764409,0.234378106585,0.137965511114,0.244928092957,0.7,0.45,0,-1,0,502,2
0.226552383031,0.281812592285,0.227853029553,0.141624317716,0.7,0.45,1,-1,0,503,2
0.307032805427,0.243946256272,0.148258176548,0.0604962564762,0.7,0.45,0,-1,0,504,2
1.14416612115,0.251592817029,0.146648458087,0.0640541462203,0.117,0.45,3,0,-1,504,2
1.03328001023,0.208007324658,0.0795585647721,0.153129888651,0.201,0.45,2,0,-1,505,2
1.14355399601,0.211645581152,0.0625010584557,0.100771523438,0.38,0.45,0,0,2,506,2
0.16734199223,0.204323033005,1.10444876712,0.174144331031,0.341,0.45,3,2,-1,507,2
0.161275488316,0.0896105831989,1.02817139568,0.00515224312394,0.289,0.45,2,2,2,508,2
0.359851852698,1.11243965307,0.0705021341382,-0.0594124498675,0.335,0.45,1,1,2,509,2
0.141422798958,0.120836665003,1.03392706955,-0.0488451760032,0.46,0.45,2,2,1,510,2
0.205319971125,0.0720826284425,0.16409667617,1.05422421302,0.47,0.45,3,3,1,511,2
0.490615754641,1.13967951092,0.0130783507813,0.0109604687189,0.414,0.45,1,1,2,512,2
1.04792963016,0.244000249004,0.0353589916592,-0.0263861029365,0.321,0.45,0,0,2,513,2
0.16202997546,0.156783581027,1.01819196997,-0.0475937016773,0.298,0.45,2,2,2,514,2
1.11425487388,0.149428606909,0.0640062290326,0.00858599682235,0.402,0.45,0,0,2,515,2
0.505106911081,1.05608908771,0.0712417535224,-0.00556818328197,0.408,0.45,1,1,2,516,2
0.201037745762,0.0915466912258,0.151116426824,1.04594920215,0.498,0.45,3,3,1,517,2
0.15870680273,0.160354008139,0.0433013788928,-0.0567605860317,0.7,0.45,0,-1,0,519,2
0.28916401282,0.162225229501,1.09736479,0.0069222845426,0.512,0.45,1,2,-1,519,2
0.144380148459,0.0779400348917,1.05746016759,0.0225607230049,0.439,0.45,2,2,2,520,2
0.256496175736,0.0614155311841,0.030354868822,1.00270776673,0.544,0.45,3,3,1,521,2
0.210344550822,0.0646926800616,1.04057675512,-0.0400337531186,0.531,0.45,2,2,1,522,2
0.513795952733,1.06375012413,0.0706335700897,-0.0717140645443,0.418,0.45,1,1,2,523,2
0.192525994446,0.0527096318473,0.137668851443,1.04198391914,0.472,0.45,3,3,1,524,2
1.00077192586,0.179195379159,0.0381643717839,-0.0886711856462,0.495,0.45,0,0,1,525,2
0.248848505476,0.122258444144,0.0995302859114,1.00342098793,0.467,0.45,3,3,1,526,2
0.634613888489,1.02649578531,0.0234653436147,-0.0532500090713,0.42,0.45,1,1,2,527,2
1.08935689923,0.184077422939,-0.00037808375203,-0.0424267125595,0.381,0.45,0,0,2,528,2
0.233876598913,0.174701015012,1.03834807983,0.0108889757161,0.267,0.45,2,2,2,529,2
1.05007290256,0.185832808868,0.0549290948452,0.0851693416063,0.355,0.45,0,0,2,530,2
0.321281088251,0.111777933027,0.0569091865781,1.0507796091,0.447,0.45,3,3,2,531,2
0.115953560933,0.0586364531062,1.02697500982,-0.0237782382186,0.42,0.45,2,2,2,532,2
0.440007084247,1.05591275893,0.0711572371774,-0.0626096663829,0.348,0.45,1,1,2,533,2
0.314294161143,0.0628300663265,0.0225328743105,1.02222205576,0.477,0.45,3,3,1,534,2
0.431345940775,1.07432372775,0.0027664478313,-0.00587010344317,0.438,0.45,1,1,2,535,2
0.02467836629,0.0898676972184,1.00011958696,-0.0330732196195,0.356,0.45,2,2,2,536,2
0.195576549533,0.0531204291523,0.185990126195,1.01749627048,0.438,0.45,3,3,2,537,2
1.02260453516,0.115996214435,-0.0154892674067,-0.10840824408,0.376,0.45,0,0,2,538,2
0.646162744381,1.14850528663,0.0792982205825,-0.0461698453518,0.443,0.45,1,1,2,539,2
1.05664825281,0.144072087768,0.0144906202465,-0.0791965074019,0.486,0.45,0,0,1,540,2
0.190718723576,0.0978873972609,1.01839834112,-0.00659081494355,0.45,0.45,2,2,1,541,2
1.0490167442,0.0410884002898,0.070377672845,-0.0682565868032,0.417,0.45,0,0,2,542,2
0.138823065099,0.102627541022,1.11972524188,0.0170340423578,0.408,0.45,2,2,2,543,2
0.237553475627,0.0284264239302,0.170602975766,1.00815359135,0.422,0.45,3,3,2,544,2
0.44637588714,1.14939656376,0.0443094700693,-0.0845444719735,0.357,0.45,1,1,2,545,2
0.128809225152,0.120666526255,1.01631646154,-0.0312994271445,0.364,0.45,2,2,2,546,2
1.04082650287,0.106528042401,0.015712175922,-0.0150479400552,0.317,0.45,1,0,-1,547,2
0.17634757718,0.170630890961,0.0209892003581,-0.0406189815284,0.7,0.45,3,-1,0,549,2
0.314295534345,0.221486233432,0.0795280452461,-0.0390972800177,0.7,0.45,2,-1,0,550,2
1.02922059821,0.246734639663,0.0624382557839,-0.0758361946029,0.438,0.45,0,0,2,550,2
0.379306062501,1.08277929365,0.0518007796804,-0.0447257867488,0.524,0.45,1,1,1,551,2
1.15342976978,0.302723553814,0.0522268380114,0.00448411802076,0.513,0.45,0,0,1,552,2
0.308651442058,0.163616935651,0.216407673233,1.05159792881,0.479,0.45,3,3,1,553,2
1.07409252096,0.265508269802,0.0265579638433,-0.0719323168784,0.42,0.45,0,0,2,554,2
0.220345282205,0.133756758536,1.15508781663,-0.0114089953511,0.387,0.45,2,2,2,555,2
0.350728046838,0.069958372129,0.117305131285,1.00701180979,0.357,0.45,3,3,2,556,2
0.29525969858,1.0767588695,0.0529833288788,0.044504558939,0.34,0.45,1,1,2,557,2
0.158778936249,0.110081059582,1.10875684131,0.0147581039713,0.584,0.45,2,2,1,558,2
1.01258763068,0.16471048509,0.0266252676796,0.00576038491414,0.437,0.45,1,0,-1,559,2
0.288613195708,0.122651005548,0.320190029823,1.08078133869,0.543,0.45,3,3,1,560,2
0.127234221915,0.114477990859,1.09151389545,0.0724679767586,0.589,0.45,2,2,1,561,2
1.00640565276,0.155365347221,-0.0144488234608,-0.0481374822733,0.403,0.45,0,0,2,562,2
0.407883784556,1.05304660925,0.0907827332468,0.0518776083116,0.496,0.45,1,1,1,563,2
1.07518576838,0.147003501465,-0.0140397651186,-0.0258267489111,0.416,0.45,0,0,2,564,2
0.12915799775,0.0182217310073,0.371266486751,1.02277575394,0.551,0.45,3,3,1,565,2
1.05969071054,0.202447076963,-0.00306203601483,0.0277567716766,0.518,0.45,0,0,1,566,2
0.317475095012,0.0213366006906,0.518837027664,1.0659668092,0.582,0.45,3,3,1,567,2
0.628778452722,1.07377817713,-0.0171116707705,0.0903938205847,0.541,0.45,1,1,1,568,2
0.0498129370934,0.102110541909,1.02024594189,0.111983042303,0.415,0.45,2,2,2,569,2
0.297756749426,1.00315765375,0.0476526582972,0.0552336366853,0.429,0.45,1,1,2,570,2
0.0636724369957,0.000349668114551,0.355175478961,1.10415977319,0.501,0.45,3,3,1,571,2
0.285863773862,0.079435030793,1.1074838718,0.0421770396278,0.446,0.45,2,2,2,572,2
1.00299105205,0.420955339487,0.00971574254944,0.00848179301108,0.431,0.45,0,0,2,573,2
0.247467165429,0.111616243197,1.1154428043,0.0686640424184,0.337,0.45,2,2,2,574,2
0.372406296077,0.0693539166748,0.0313194711611,1.19262360909,0.495,0.45,3,3,1,575,2
1.11966609411,0.125088580623,-0.0127316265508,-0.00393219280353,0.444,0.45,0,0,2,576,2
0.702898109494,1.03532979056,-0.0195433064099,0.0123707565354,0.423,0.45,1,1,2,577,2
1.02563917637,0.168081777991,0.0721546085021,0.0731662062523,0.432,0.45,0,0,2,578,2
1.00014014016,0.455255572659,0.0327028394445,0.0289717283524,0.474,0.45,1,0,-1,579,2
0.367423834368,0.145280184535,0.0409387791921,1.02715025539,0.533,0.45,3,3,1,580,2
0.217804710507,0.104604987219,1.03989429987,-0.0321891022252,0.444,0.45,2,2,2,581,2
0.324069077327,1.02519138512,0.171690608254,0.0369371872164,0.553,0.45,1,1,1,582,2
0.0589175982611,0.0433817907309,1.02416226539,0.5407892589,0.51,0.45,2,2,1,583,2
0.157540550622,-0.00480686348802,0.193785575611,1.01409058466,0.481,0.45,3,3,1,584,2
1.03593536612,0.0219419423241,0.00896598369023,-0.0954190409216,0.472,0.45,0,0,1,585,2
0.392606976396,0.0580067891483,0.0521337183977,1.13332533591,0.423,0.45,3,3,2,586,2
0.425904032899,1.1521592252,0.0253323351492,-0.089317308299,0.433,0.45,1,1,2,587,2
1.10106392832,0.183078094582,0.00163832123123,-0.100286936486,0.393,0.45,0,0,2,588,2
0.218383902071,0.0540868284053,1.01604197625,-0.0635089299712,0.41,0.45,2,2,2,589,2
1.03792603443,0.0604478170062,0.045196734299,-0.0120336718658,0.402,0.45,0,0,2,590,2
0.0087434940843,0.0877611362458,1.02371679416,-0.0618153940107,0.318,0.45,2,2,2,591,2
0.123097922698,0.0404217448276,0.145862284199,1.06976209597,0.367,0.45,3,3,2,592,2
0.486943530768,1.23075538936,-0.00495489254696,-0.0789528200618,0.398,0.45,1,1,2,593,2
0.181123286697,0.0906820947992,1.0159973827,-0.0198138813648,0.368,0.45,2,2,2,594,2
1.1732431892,0.0608092183608,-0.0216902073229,-0.00288536654025,0.352,0.45,1,0,-1,595,2
0.124777999282,0.17060280817,0.018268707494,0.0156639775291,0.7,0.45,3,-1,0,597,2
0.265969617576,0.173674763372,1.04364296704,0.0192742458743,0.571,0.45,2,2,1,597,2
1.23606175647,0.625727267203,0.0127150149944,-0.0815165082802,0.427,0.45,0,0,2,598,2
0.211381067024,0.108875306363,0.0464169271899,1.10284030861,0.492,0.45,3,3,1,599,2
1.03756598003,0.184253288526,0.000891731235198,-0.0467702814822,0.417,0.45,0,0,2,600,2
0.651499982137,1.20592339494,-0.0068624367965,-0.0441341287226,0.41,0.45,1,1,2,601,2
1.0793212953,0.129584500024,0.0171656840771,-0.0274422255872,0.439,0.45,0,0,2,602,2
0.348983711592,1.00891211155,0.00317303863584,-0.0574607795256,0.483,0.45,1,1,1,603,2
-0.0039539632085,0.0913460353338,1.15237938754,-0.0410716763654,0.417,0.45,2,2,2,604,2
0.125565468848,0.111127731346,0.0191882095716,1.1800299413,0.429,0.45,3,3,2,605,2
0.634361813707,1.20928904696,-0.019939963108,-0.0803478336699,0.529,0.45,1,1,1,606,2
0.555781383457,0.0427014325883,-0.0209930864283,1.07260898636,0.619,0.45,3,3,1,607,2
0.239719844122,0.0470047527774,1.07435447621,-0.11071954937,0.548,0.45,2,2,1,608,2
0.289700599678,1.04986912099,-0.0154330709931,-0.0300585534432,0.689,0.45,1,1,1,609,2
1.03066471398,0.154069966757,0.0102470623926,0.0244410790793,0.423,0.45,0,0,2,610,2
0.15433615667,0.0619866892336,0.068929665032,1.06160001444,0.473,0.45,3,3,1,611,2
1.17535405496,0.101688556227,-0.00699449801116,-0.0804144316793,0.481,0.45,0,0,1,612,2
0.238358004518,0.0816433414007,1.12929269798,-0.0338176004307,0.37,0.45,2,2,2,613,2
1.12978740676,0.061722162116,-0.022997395954,-0.009104358979,0.351,0.45,0,0,2,614,2
0.477042981508,1.14071463618,0.0443710266508,-0.024525382351,0.414,0.45,1,1,2,615,2
0.271903656537,0.206925048417,1.00707844655,0.0181084230222,0.363,0.45,2,2,2,616,2
0.339646893092,0.0502997067836,0.0941661341046,1.04060447176,0.365,0.45,3,3,2,617,2
0.296751240137,0.204651480833,1.14107495806,0.117513701606,0.471,0.45,2,2,1,618,2
0.36273773099,1.0476186675,0.0246363065778,-0.0606263588123,0.333,0.45,1,1,2,619,2
0.399172295134,0.0838360960352,0.113686276078,1.00207904378,0.493,0.45,3,3,1,620,2
0.414732121963,1.118846394,0.0309024500452,-0.0225549367237,0.452,0.45,1,1,1,621,2
1.05392925215,0.175660565268,0.0442462148159,0.0594427301517,0.303,0.45,0,0,2,622,2
0.45020893962,0.208915368051,0.0924002481442,1.08538103917,0.376,0.45,3,3,2,623,2
1.09297122476,0.369835856096,0.0310426219527,-0.0451166744834,0.396,0.45,0,0,2,624,2
0.246834476227,0.197694669595,1.05481743787,0.0375909417713,0.326,0.45,2,2,2,625,2
0.302763340947,1.08736261213,-0.000404964774522,-0.0155592761548,0.427,0.45,0,1,-1,626,2
0.109152155162,0.115955742805,1.04377929415,0.0983148971477,0.427,0.45,2,2,2,627,2
1.00475417646,0.163735784461,-0.00763257957938,-0.0129036730255,0.433,0.45,1,0,-1,628,2
0.282357638198,0.15753851157,0.140140036192,1.0764199334,0.439,0.45,3,3,2,629,2
0.364755433553,1.1076776541,-0.00383527427502,-0.0860178076732,0.35,0.45,1,1,2,630,2
0.0922769115242,0.111377652333,1.03425729498,-0.046583402423,0.349,0.45,2,2,2,631,2
0.384730261312,0.11633037105,0.249981159673,1.11825633999,0.479,0.45,3,3,1,632,2
0.0995427011985,0.0530491638562,1.07857466308,-0.0547377318255,0.55,0.45,2,2,1,633,2
1.06376102206,0.106711377098,0.0785194750683,-0.0530183617096,0.381,0.45,0,0,2,634,2
0.0723740308964,0.0549689109963,0.07146385226,0.0992137931515,0.7,0.45,3,-1,0,636,2
0.315555257856,0.0738548990584,0.0679044058771,1.12956958548,0.183,0.45,0,3,-1,636,2
0.407356562164,0.385304105805,0.0832532025542,0.12392964609,0.7,0.45,1,-1,0,638,2
1.07521150233,0.312031083021,0.0853494288406,0.0227864907919,0.484,0.45,0,0,1,638,2
0.277481251563,0.246789670019,1.1209232567,0.131746372735,0.413,0.45,2,2,2,639,2
0.403656013916,1.04565823475,0.0556187404731,0.0140300052342,0.478,0.45,1,1,1,640,2
0.27309320965,0.157460873851,0.158653540813,1.123349371,0.44,0.45,3,3,2,641,2
0.42037644277,1.14093463334,0.0249999036012,0.0480451292099,0.378,0.45,1,1,2,642,2
0.187870839156,0.215782476866,1.02786488262,0.153656024432,0.428,0.45,2,2,2,643,2
0.232091024425,0.106350653389,0.0484269705729,1.00759138685,0.351,0.45,3,3,2,644,2
1.2056649539,0.296960993333,0.00800283234951,0.0681863636369,0.409,0.45,0,0,2,645,2
0.184508140282,0.0901662271372,0.0761940309996,1.13490524667,0.397,0.45,3,3,2,646,2
0.472056182308,1.12990542182,0.0449602809323,0.0608383412874,0.36,0.45,2,1,-1,647,2
1.02366182255,0.394258317075,0.0111151821126,0.0103653375097,0.482,0.45,0,0,1,648,2
0.131482407512,0.126249895376,0.127707650103,0.115383649348,0.7,0.45,1,-1,0,650,2
0.394670067307,0.200135083808,0.0564495172651,0.0181279548084,0.7,0.45,0,-1,0,651,2
0.536441536772,0.281721328466,0.263748860277,1.18217310115,0.648,0.45,3,3,1,651,3
0.442070564262,1.02212925622,0.177266421903,0.343774770991,0.478,0.45,1,1,1,652,3
0.351468004049,0.250048488541,1.10030428936,0.232648094759,0.379,0.45,2,2,2,653,3
1.06550861059,0.242825204217,0.148635979039,0.132672680178,0.388,0.45,0,0,2,654,3
0.420858238572,0.192046847078,1.01304789154,0.187639122402,0.248,0.45,1,2,-1,655,3
1.06008721381,0.2826454478,0.140821132808,0.177100360199,0.328,0.45,0,0,2,656,3
0.559206015477,0.243850508334,1.15871410335,0.22339579095,0.281,0.45,2,2,2,657,3
0.405404424112,1.07359662534,0.20172411526,0.241781763137,0.523,0.45,1,1,1,658,3
0.49024773522,0.294942958012,0.186542813778,1.0229262543,0.45,0.45,3,3,1,659,3
1.02883379989,0.370367793787,0.115813795279,0.190046006787,0.386,0.45,0,0,2,660,3
0.439321735971,0.231350128855,1.02350975979,0.17407957538,0.289,0.45,3,2,-1,661,3
0.405671851741,0.151390032442,1.04778789854,0.127576223473,0.345,0.45,2,2,2,662,3
0.668655593042,0.200253764852,0.0903134467895,1.02024366528,0.508,0.45,3,3,1,663,3
0.613324955995,1.17691837348,0.294673922228,0.115350456688,0.531,0.45,1,1,1,664,3
1.01840226559,0.607880005275,0.0756648012656,0.117775768616,0.405,0.45,0,0,2,665,3
0.380478116175,0.200412575838,1.06412516946,0.0518035563475,0.356,0.45,2,2,2,666,3
0.387589613318,1.00559680867,0.0427203440086,0.176757762752,0.522,0.45,1,1,1,667,3
0.276546440384,0.13066297594,1.06826050054,0.0628715449011,0.425,0.45,2,2,2,668,3
1.03318988886,0.833839820906,-0.0235231684035,0.0144247589785,0.434,0.45,0,0,2,669,3
0.489380890317,1.03460197989,0.469766687053,0.111289362867,0.43,0.45,1,1,2,670,3
0.476488161104,0.146993736936,0.291448243677,1.06815443545,0.481,0.45,3,3,1,671,3
0.436733354636,0.163140817361,1.0808621947,0.0516071972017,0.461,0.45,2,2,1,672,3
0.463633885572,0.112677989167,0.305118353693,1.11299502932,0.482,0.45,3,3,1,673,3
1.04523569644,0.153683031323,0.076697575012,-0.0106755296503,0.372,0.45,0,0,2,674,3
0.465721486245,0.0979631741486,0.546904388636,1.11390429419,0.383,0.45,3,3,2,675,3
0.317684946209,0.0781614231939,1.05266771865,0.0164524809405,0.359,0.45,2,2,2,676,3
1.12389562782,0.166547759632,0.071376332533,-0.0109143009274,0.341,0.45,0,0,2,677,3
0.554184679339,1.06138228378,0.0866545415315,0.11816222438,0.352,0.45,1,1,2,678,3
1.09685902165,0.169098512159,0.129699055129,0.177625655901,0.424,0.45,0,0,2,679,3
0.320270983435,0.136874039393,1.07987323769,0.0401400630269,0.319,0.45,2,2,2,680,3
0.275336791578,0.281103798389,0.092428088606,0.116835605191,0.7,0.45,1,-1,0,682,3
0.335778953252,0.318492623304,1.09808231356,0.125518803114,0.467,0.45,2,2,1,682,3
0.445399082607,0.204467560035,0.104789486086,1.11126499523,0.442,0.45,3,3,2,683,3
1.09403957765,0.139073583612,0.0640944055506,0.0828342754589,0.304,0.45,0,0,2,684,3
0.430443566347,0.103467093264,0.400376963087,1.05799734216,0.382,0.45,3,3,2,685,3
0.588873159288,1.13388855335,0.0398647282563,0.0555427570046,0.366,0.45,1,1,2,686,3
0.319837486667,0.0694081736641,0.0322266790672,1.29555058573,0.331,0.45,3,3,2,687,3
1.11462824926,0.132257442619,0.0406608623974,-0.01212624319,0.334,0.45,0,0,2,688,3
0.411307558666,0.185846562469,1.0489565817,0.136462897485,0.32,0.45,2,2,2,689,3
0.194205987758,1.013630516,0.168260711094,0.159071123527,0.512,0.45,1,1,1,690,3
1.06996497701,0.209526302253,0.0781676232756,0.0771560655477,0.372,0.45,0,0,2,691,3
1.25848120317,0.180103239683,0.0654099963721,0.191688518101,0.479,0.45,1,0,-1,692,3
0.0786184689332,0.211148246661,1.03130186609,0.01824365585,0.485,0.45,2,2,1,693,3
0.300997360774,0.16476046102,0.113829769432,1.11470603354,0.363,0.45,3,3,2,694,3
0.327649460126,0.164064925078,1.05236555329,0.0697842736357,0.48,0.45,2,2,1,695,3
1.11192844734,0.122815026762,0.0161687839096,0.0221951742496,0.415,0.45,0,0,2,696,3
0.24203015409,0.067560999407,0.265917139321,1.01224895909,0.439,0.45,3,3,2,697,3
0.922321123876,1.0118124791,0.0648845751784,0.136113955433,0.451,0.45,1,1,1,698,3
0.083604795099,0.112175885698,0.278749390605,1.06057824927,0.471,0.45,3,3,1,699,3
1.03044687865,0.147609045473,0.0137710063773,0.0457458282184,0.42,0.45,0,0,2,700,3
0.258864792952,0.164687665879,1.08103528297,0.198981434383,0.487,0.45,2,2,1,701,3
0.10295809716,1.04191805499,0.140804510393,0.0561942870943,0.541,0.45,1,1,1,702,3
1.12446512906,0.310847182821,0.0352015391052,0.00939057559239,0.428,0.45,0,0,2,703,3
0.666751621683,1.06703264312,0.0755974606414,0.0443549512186,0.496,0.45,1,1,1,704,3
0.0777398088336,0.20594323061,1.05534914885,0.140427847588,0.416,0.45,2,2,2,705,3
1.02089950686,0.219601737022,0.0552749284529,0.0334744085285,0.536,0.45,0,0,1,706,3
0.313759612402,0.208437483185,0.0755292428797,1.06565666451,0.461,0.45,3,3,1,707,3
0.319289962709,0.0808875517936,1.06358991761,-0.0314986684867,0.46,0.45,2,2,1,708,3
0.408325801893,0.0591951508034,0.125338332036,1.03136878226,0.45,0.45,3,3,1,709,3
0.499022143692,1.0518112512,0.532331128103,-0.0398199221919,0.445,0.45,1,1,2,710,3
0.135930775524,0.204611865825,0.0186699686651,1.11202040303,0.512,0.45,3,3,1,711,3
1.0686737278,0.131270876721,0.0213821794331,-0.0561114005402,0.414,0.45,0,0,2,712,3
0.316586228481,1.12142259506,0.0301757345443,0.0663616755213,0.448,0.45,1,1,2,713,3
0.0841805241899,0.124252347252,1.11176295548,0.0404744709774,0.344,0.45,2,2,2,714,3
0.129344787882,1.05067465352,0.000151730727581,0.230720616869,0.492,0.45,1,1,1,715,3
1.11194907626,0.277268451323,-0.0283158060607,0.0364971647002,0.327,0.45,0,0,2,716,3
0.289447974715,0.117779455869,1.10853958983,0.28045985956,0.463,0.45,2,2,1,717,3
1.23912567904,0.00207059284476,-0.0468668978357,-0.0126546294132,0.412,0.45,0,0,2,718,3
0.311313273149,0.0776855626915,0.730456425354,1.1090105681,0.478,0.45,3,3,1,719,3
0.289640794835,0.0330611018179,1.07988170687,0.143916806513,0.496,0.45,2,2,1,720,3
0.385392352119,-0.00328836199575,0.0360843834625,1.14872036059,0.551,0.45,3,3,1,721,3
0.528861074021,1.07484291142,0.0673044699728,-0.0633088928338,0.576,0.45,1,1,1,722,3
0.0516648268606,0.00798580202025,0.489306894143,1.09907346144,0.522,0.45,3,3,1,723,3
0.317642113671,0.0519271470133,1.01416745804,0.0807968336199,0.463,0.45,2,2,1,724,3
0.273939003098,1.04610330895,-0.0467571291929,-0.0136883439606,0.457,0.45,1,1,1,725,3
1.0685342029,0.214780152113,-0.0468656936983,0.0997924891859,0.452,0.45,0,0,1,726,3
0.189760974226,0.0745032551625,1.01454329572,0.133748000618,0.448,0.45,2,2,2,727,3
1.10246673734,0.0719488177411,0.0244759377348,0.0357037211013,0.383,0.45,0,0,2,728,3
0.418976340335,1.16740703557,-0.00439783712808,0.0863005046191,0.402,0.45,1,1,2,729,3
0.241263254359,0.0908062678904,0.463449807114,1.01522829846,0.424,0.45,3,3,2,730,3
1.07500960211,0.117000279964,-0.00446330851776,-0.000272319849304,0.407,0.45,0,0,2,731,3
0.250596877172,0.0824432839581,1.06233204166,0.0814124899053,0.306,0.45,3,2,-1,732,3
1.07698486778,0.0989491299109,0.0229415629213,0.028377149837,0.466,0.45,1,0,-1,733,3
0.195158505204,0.153171215895,1.01392891556,0.0407586128031,0.492,0.45,2,2,1,734,3
-0.0106216113076,0.0431383615317,0.172978391042,1.14246154108,0.495,0.45,3,3,1,735,3
1.07397465448,0.139830064769,0.0153461151812,0.0231475282964,0.406,0.45,0,0,2,736,3
0.227762492518,0.480167291598,-0.0265660911821,0.0160182449809,0.7,0.45,1,-1,0,738,3
0.203973321607,1.13138150546,-0.038175330416,-0.00168554598118,0.0890000000004,0.45,2,1,-1,738,3
1.08419714904,0.088562513664,-0.0314397435759,-0.0408766721214,0.418,0.45,0,0,2,739,3
0.0337267076512,0.119692301145,1.09497811749,0.116603820524,0.353,0.45,2,2,2,740,3
0.21014606298,1.11986347124,0.0627115608669,0.0495632877561,0.396,0.45,1,1,2,741,3
0.220652958228,0.194070084498,0.121363259629,1.17615719745,0.399,0.45,3,3,2,742,3
0.0664753713397,0.0482407932506,1.08107487417,0.124313429729,0.461,0.45,2,2,1,743,3
0.256309164154,0.00162929232296,0.0105054735104,1.00882263524,0.433,0.45,3,3,2,744,3
0.363577560097,1.26355272926,0.070035045829,0.0983331250903,0.543,0.45,1,1,1,745,3
1.11083704301,0.245582867446,0.0327048334956,0.120106271171,0.385,0.45,0,0,2,746,3
0.105833457541,0.0848815210911,1.09160857049,0.141436947519,0.355,0.45,3,2,-1,747,3
0.119527349437,0.0520328904993,1.0479484845,0.0278749517151,0.332,0.45,2,2,2,748,3
0.26810344571,1.12219006187,0.0124585065552,0.0457895699309,0.291,0.45,1,1,2,749,3
0.513114674878,1.01266986911,0.00243506066689,0.0299374981535,0.355,0.45,0,1,-1,750,3
0.107687599099,1.19749245018,0.0220309136665,0.134389686267,0.56,0.45,1,1,1,751,3
0.131665080824,0.0851810658347,1.14397164592,0.0909989997887,0.456,0.45,2,2,1,752,3
1.08698180822,0.0690366067725,0.0459645389963,0.0326499724742,0.437,0.45,0,0,2,753,3
0.257911176751,0.0555077180892,0.0365871172979,1.16953553271,0.408,0.45,3,3,2,754,3
0.520010843011,1.07988894482,0.0247987927624,0.0752304672994,0.505,0.45,1,1,1,755,3
0.126992421935,0.0513781907062,0.0343271895964,1.01814203346,0.377,0.45,3,3,2,756,3
1.04879257156,0.153286070327,0.0684085296979,0.0808192648607,0.388,0.45,0,0,2,757,3
0.281686042727,1.04358728991,0.287062650111,0.138898452325,0.46,0.45,2,1,-1,758,3
0.272309108609,0.0132930629975,0.0810112661797,1.03729211162,0.558,0.45,3,3,1,759,3
0.950973487411,1.04686553831,0.0650857684666,0.0469193821788,0.573,0.45,1,1,1,760,3
1.03386598896,0.194215356609,0.0460752437061,0.0952120890314,0.393,0.45,0,0,2,761,3
0.0389721978214,0.0688358504251,1.08983395453,0.0520493140344,0.341,0.45,2,2,2,762,3
0.140785964044,1.20801337871,0.0868851361337,0.0652616053266,0.505,0.45,1,1,1,763,3
-0.00689155670927,0.0771686779676,1.01674799135,0.0475894833582,0.379,0.45,2,2,2,764,3
1.17012860236,0.0983243826123,0.112754725532,0.0358333711092,0.371,0.45,0,0,2,765,3
0.175301108531,1.04669218163,0.0358792396174,0.210907795541,0.483,0.45,1,1,1,766,3
0.0364162971398,0.138776877619,1.0857548208,0.128307027873,0.379,0.45,3,2,-1,767,3
1.03825060444,0.100942042415,0.0430679168265,0.0602255433595,0.462,0.45,0,0,1,768,3
0.013172607828,0.0289604149842,0.220211258678,1.13471962242,0.45,0.45,3,3,1,769,3
0.115612235472,0.0463063307168,1.03822690002,-0.00734890058427,0.407,0.45,2,2,2,770,3
0.263637171176,0.0384491779306,0.0425838111362,1.05835729242,0.486,0.45,3,3,1,771,3
1.13021279486,0.0893164271282,0.021908469298,0.0885472059933,0.493,0.45,0,0,1,772,3
0.338947459782,1.01520359834,0.0324715169328,0.053947010706,0.441,0.45,1,1,2,773,3
0.223224187115,0.048779204959,1.17746315263,0.248418365708,0.61,0.45,2,2,1,774,3
1.12275946009,0.00252305042557,-0.0390319061674,0.0887264948781,0.459,0.45,0,0,1,775,3
0.0731731229919,0.0323082731628,1.0811656336,0.0363858967173,0.401,0.45,2,2,2,776,3
0.166996407021,1.14765344783,-0.0232661699133,0.0477570586272,0.349,0.45,1,1,2,777,3
0.28388774749,0.120274216213,0.0199681253097,1.13137637086,0.432,0.45,3,3,2,778,3
0.147039822285,0.0979845666296,1.13503765802,0.114518915784,0.459,0.45,2,2,1,779,3
0.167340331191,0.0951354660415,0.0223155722883,1.05208392285,0.579,0.45,3,3,1,780,3
1.00357661863,0.165818931669,-0.0163086090807,0.0539087934361,0.546,0.45,1,0,-1,781,3
1.14967995227,0.171552710918,0.00832588489351,0.079369915028,0.452,0.45,0,0,1,782,3
0.0164477118238,0.0436310398861,1.10609838738,0.137537949422,0.466,0.45,3,2,-1,783,3
0.0950585321082,0.0520607862046,1.11848846768,0.0147426833824,0.545,0.45,2,2,1,784,3
1.09828927262,0.00398132981761,-0.0466025268791,0.0103080312335,0.457,0.45,0,0,1,785,3
0.330409746945,1.20477662829,-0.0345588913852,0.0745552143677,0.43,0.45,1,1,2,786,3
0.0134846147378,0.0473199212978,1.07206768694,0.0584743554344,0.399,0.45,2,2,2,787,3
0.0705361330263,1.00456398881,0.124776837399,0.161034245549,0.56,0.45,1,1,1,788,3
1.03894696998,0.24578587331,0.0436159349234,0.117621120396,0.521,0.45,0,0,1,789,3
0.162385455664,0.0401476152942,1.09223952886,0.114430382607,0.583,0.45,2,2,1,790,3
0.269735664749,-0.0108977057219,0.0645826171413,1.03445091977,0.482,0.45,3,3,1,791,3
1.23980228494,-0.0151373952041,0.025219823221,-0.0401364276475,0.496,0.45,0,0,1,792,3
0.308979005811,-0.00958925900269,0.0126667018472,1.10110916015,0.434,0.45,3,3,2,793,3
0.243569628019,1.07698174058,0.0453443007361,-5.20931272958e-05,0.502,0.45,1,1,1,794,3
0.134864847244,0.0933145948764,0.0614572421174,1.04913854305,0.425,0.45,3,3,2,795,3
0.157257734557,0.17437807747,1.00867144005,0.157793069483,0.491,0.45,2,2,1,796,3
1.07756008925,0.0189547081065,-0.031185060074,0.037840056357,0.421,0.45,0,0,2,797,3
0.0937252559801,1.04217791455,0.023598365533,0.107584990521,0.492,0.45,1,1,1,798,3
0.0632645012566,0.0109121551297,1.1373672443,-0.0036673053679,0.39,0.45,2,2,2,799,3
0.301277787177,1.12534910859,0.00364310583468,0.14270629107,0.484,0.45,1,1,1,800,3
1.06472509649,0.0715013696012,0.0365538403444,0.0774716138349,0.18,0.45,0,0,2,801,3
0.103198944601,0.124475563056,0.238816430943,1.10227297731,0.429,0.45,3,3,2,802,3
1.0401753583,0.0490052460575,-0.013246767511,0.00283902829587,0.362,0.45,0,0,2,803,3
0.153606229903,0.0695980840863,1.00706203516,0.072516079898,0.391,0.45,2,2,2,804,3
0.15697834337,0.195174664726,-0.0135427837255,1.06429059593,0.508,0.45,3,3,1,805,3
0.1492369119,1.07687429047,0.166999375186,-0.018054182472,0.448,0.45,1,1,2,806,3
0.176410990269,0.104765286337,0.0307553683491,1.0455269025,0.49,0.45,3,3,1,807,3
1.15960945334,0.189107367618,-0.00356760769038,0.0187263670247,0.461,0.45,0,0,1,808,3
0.322299951267,1.03901494019,0.0873884897086,0.103662892109,0.474,0.45,1,1,1,809,3
0.0791322951117,0.172871529254,1.00380522675,0.100616490718,0.404,0.45,2,2,2,810,3
0.898780766135,1.05661871536,-0.00622393088497,0.00817335700498,0.44,0.45,1,1,2,811,3
1.02284346015,0.0573228475669,0.00186620332635,0.0394799183913,0.288,0.45,0,0,2,812,3
0.0278599960009,0.108394859023,1.15876599172,0.0995865422551,0.381,0.45,2,2,2,813,3
1.05588218852,-0.00194364269514,0.0499158296606,0.162710071525,0.463,0.45,0,0,1,814,3
0.16892012475,0.0583857245284,0.0601255729045,1.09084614427,0.402,0.45,3,3,2,815,3
0.0746870838892,0.00563106785138,1.12159898286,-0.0271356793765,0.378,0.45,2,2,2,816,3
0.178467288894,0.0501925745594,-0.0150029520697,1.15540765692,0.501,0.45,3,3,1,817,3
0.607913523486,1.1740631973,0.118887783314,0.0641570488163,0.612,0.45,1,1,1,818,3
9.45962644838e-06,0.00537835757304,0.106130609599,1.04441805342,0.447,0.45,3,3,2,819,3
0.432541360309,1.05679969118,0.109061312005,0.0370349921749,0.471,0.45,1,1,1,820,3
0.00653665331616,0.0356065914962,1.14758590378,0.216007182341,0.402,0.45,2,2,2,821,3
1.06034633406,0.490939781111,0.023262730404,0.0393195004908,0.399,0.45,0,0,2,822,3
0.0827648883079,0.0582231909298,1.10488798538,0.206775939135,0.387,0.45,2,2,2,823,3
0.456687252174,1.05755160924,0.0204299416925,0.0297187655319,0.377,0.45,1,1,2,824,3
1.10089866684,0.0166335842445,-0.0258461072253,0.0230314339124,0.301,0.45,0,0,2,825,3
0.285522717539,1.15751258407,0.15888875447,0.144882622516,0.484,0.45,1,1,1,826,3
0.265019100763,0.00905868457674,0.646647909904,1.21423657822,0.473,0.45,3,3,1,827,3
0.15645469502,0.0314018445896,1.03967493147,0.0181431344811,0.458,0.45,2,2,1,828,3
0.23117581471,0.0196341581834,0.0194825647867,1.00360347339,0.493,0.45,3,3,1,829,3
1.21667273058,0.0539480331846,0.0272209010842,0.0113560190748,0.53,0.45,0,0,1,830,3
0.104109954248,0.0220623248978,0.17072665009,1.07531564661,0.529,0.45,3,3,1,831,3
0.673844396276,1.02022379851,0.21534455169,0.135905670092,0.651,0.45,1,1,1,832,3
0.0730057833694,0.0392851915895,1.05446539505,0.213234219767,0.544,0.45,2,2,1,833,3
1.05906842487,0.0290423200686,0.0011340329835,-0.0137500028186,0.398,0.45,0,0,2,834,3
0.237419150207,0.0630280918529,1.1423847138,0.153608916645,0.394,0.45,2,2,2,835,3
0.292193719334,1.07348081242,0.186742702236,0.013279626418,0.357,0.45,1,1,2,836,3
1.05927167354,0.238473022226,0.0630833016098,0.0352474724833,0.472,0.45,0,0,1,837,3
0.369786752223,1.00621353349,0.271087071455,0.082288843388,0.636,0.45,1,1,1,838,3
0.211016613513,0.0362335273596,0.0337971424986,1.03929127123,0.59,0.45,3,3,1,839,3
0.0817730307591,0.0166665167867,1.00182820461,-0.00675927665677,0.594,0.45,2,2,1,840,3
0.143619619066,-0.00607891627904,-0.0259159205077,1.13100804171,0.504,0.45,3,3,1,841,3
1.13047691921,0.021702206455,0.0384425357065,-0.0416410633454,0.4,0.45,0,0,2,842,3
0.152439887815,0.0292959195463,0.539664797326,1.11035323918,0.416,0.45,3,3,2,843,3
1.13656026836,0.0236556882595,-0.00451330873045,0.0107607352116,0.432,0.45,0,0,2,844,3
0.685380232468,1.05987864859,0.180388486933,0.0729658314184,0.456,0.45,1,1,1,845,3
0.109195298958,0.0827068828529,1.09240116405,0.153383463799,0.384,0.45,2,2,2,846,3
0.633195295338,1.06282604102,0.270695128905,0.00149964551226,0.514,0.45,1,1,1,847,3
1.10788972286,0.178449870198,0.0718175284713,-0.0228190423258,0.35,0.45,0,0,2,848,3
0.192184263502,0.0457282125407,1.0468447509,0.0936684885359,0.359,0.45,2,2,2,849,3
1.00074908529,0.048259183258,0.00769271337631,0.0397809464078,0.31,0.45,0,0,2,850,3
0.0458723319888,0.0344023498069,1.10212926413,0.0610216863933,0.318,0.45,3,2,-1,851,3
1.07436499999,0.145713417207,0.129690964381,0.0138126448036,0.442,0.45,1,0,-1,852,3
0.062031134738,0.0359438433748,0.356007602378,1.08992640166,0.575,0.45,3,3,1,853,3
0.0993365552825,0.115213939841,1.11138432763,0.107990889422,0.7,0.45,2,-1,0,855,3
0.0993365552825,0.115213939841,1.11138432763,0.107990889422,0.00600000000047,0.45,3,2,-1,855,3
0.0213488763803,0.0022747583545,1.04379863223,0.00929598573501,0.516,0.45,2,2,1,856,3
0.224168444248,1.0865067975,0.108000204182,-0.0250365697466,0.485,0.45,1,1,1,857,3
1.00828814116,0.124578238966,0.0899479545799,0.0291891977947,0.33,0.45,0,0,2,858,3
0.110997455238,0.079601287066,0.12964377539,0.0413244710708,0.7,0.45,2,-1,0,860,3
1.01598634827,0.258996742363,0.127661811889,0.0412408627025,0.556,0.45,0,0,1,860,3
0.345537136241,1.09118344335,0.0839596895725,-0.00463188142342,0.659,0.45,1,1,1,861,3
0.0638552376631,0.0731488927462,0.110386215581,1.01559178001,0.56,0.45,3,3,1,862,3
1.19479381084,0.110165330354,0.0114861251854,0.00511002911327,0.442,0.45,0,0,2,863,3
0.0881684448409,0.0655057416894,1.02728594017,0.0385232147199,0.38,0.45,3,2,-1,864,3
0.0738222567566,1.16378044778,-0.0223547666955,0.0464846573961,0.538,0.45,1,1,1,865,3
-0.0135296280323,-0.00733168148519,1.11177572495,0.102165533305,0.433,0.45,2,2,2,866,3
0.00405332555921,0.0140357387181,-0.0312797729139,1.07385093392,0.49,0.45,3,3,1,867,3
1.04725724725,0.300210415824,0.191761403706,0.150014873527,0.398,0.45,0,0,2,868,4
0.405790077206,0.216486862147,1.09479077125,0.331524549695,0.317,0.45,1,2,-1,869,4
0.516959333656,0.222109485087,0.0130376908695,1.14202592947,0.409,0.45,3,3,2,870,4
0.44288325431,0.163369545895,1.00579629357,0.197783736317,0.349,0.45,2,2,2,871,4
0.691426765445,1.16011698696,0.055826577634,0.090271563125,0.311,0.45,1,1,2,872,4
0.352246807763,0.0501188716216,1.16175264629,0.0652984890741,0.34,0.45,2,2,2,873,4
0.484546618837,0.118512120182,0.117181269785,1.02809162323,0.384,0.45,3,3,2,874,4
0.615253259869,1.07525668072,0.080370454417,0.092617717003,0.353,0.45,1,1,2,875,4
1.16158765152,0.344880918325,0.00347940225024,0.00657471904283,0.382,0.45,0,0,2,876,4
0.352726876926,0.161689991729,1.10002487927,0.135657057929,0.278,0.45,2,2,2,877,4
1.01829942455,0.221697726131,0.0800041817718,0.141847478699,0.342,0.45,0,0,2,878,4
0.447695795822,0.164819036822,1.03888639767,0.283075792127,0.317,0.45,3,2,-1,879,4
1.11410797582,0.286990162648,-0.00712282533517,0.0361679210441,0.369,0.45,0,0,2,880,4
0.322483823191,0.0891096329196,1.00403349783,0.105325583884,0.351,0.45,3,2,-1,881,4
0.560235357012,1.04911073777,0.0617049623993,0.0690918892755,0.334,0.45,1,1,2,882,4
0.310304317121,0.202192028115,1.09941305528,0.0846094587428,0.336,0.45,2,2,2,883,4
0.440606864111,0.143513409524,0.0811532003372,1.01225109159,0.351,0.45,3,3,2,884,4
0.345905663678,0.0758902901171,1.11987794508,0.156186918508,0.468,0.45,2,2,1,885,4
0.443541135665,1.00314411788,-0.00443307954626,0.121909900209,0.377,0.45,1,1,2,886,4
1.03990782422,0.283559164673,0.0404221839857,0.0636987765529,0.302,0.45,0,0,2,887,4
0.367718824027,0.132025375131,1.04554636177,0.0114052136243,0.322,0.45,2,2,2,888,4
1.1142053639,0.146251964468,0.012598598997,0.125828451374,0.417,0.45,0,0,2,889,4
0.603401638593,1.2419233407,0.0383859667279,0.094683826343,0.446,0.45,1,1,2,890,4
0.441435074106,0.0816284344607,0.664292823015,1.03188222767,0.5,0.45,3,3,1,891,4
1.05133020498,0.289261546008,-0.00611640722276,0.050989485284,0.484,0.45,0,0,1,892,4
0.376168943291,0.135486409926,1.03685691984,0.0374351175723,0.351,0.45,2,2,2,893,4
0.345048806808,0.0642105139454,0.0152377097466,1.02834236178,0.391,0.45,3,3,2,894,4
0.665141537931,1.10404784966,0.117145011199,0.0614611383658,0.403,0.45,1,1,2,895,4
0.0944989118739,0.0565092110936,1.12032370093,0.0323878728989,0.4,0.45,2,2,2,896,4
0.580512995947,1.18481861442,0.0725932770403,0.082702518676,0.367,0.45,1,1,2,897,4
0.324384213469,0.0350554685412,0.476334037821,1.04312369017,0.43,0.45,3,3,2,898,4
1.00693868127,0.169643622432,-0.00941264634724,-0.0355030046191,0.382,0.45,0,0,2,899,4
0.391125339299,0.0543837521902,0.727013799586,1.04147712668,0.418,0.45,3,3,2,900,4
0.335283411682,0.137205536854,1.03555604971,0.0173156646632,0.373,0.45,2,2,2,901,4
0.404835557021,1.12881594766,0.0486611824835,0.00642441108676,0.33,0.45,0,1,-1,902,4
0.596520446535,1.17492733541,0.0403033423557,0.047700453516,0.399000000001,0.45,1,1,2,903,4
1.00802181733,0.371651918799,-0.00951065026937,-6.7092765994e-05,0.419000000001,0.45,0,0,2,904,4
0.52392093693,0.277933913259,1.03188811433,-0.000777140806194,0.347000000001,0.45,2,2,2,905,4
1.04111498151,0.208191966634,0.0699918196204,0.0854894794142,0.352000000001,0.45,1,0,-1,906,4
0.339241007809,0.177725979005,0.0196813733584,1.01602373921,0.512000000001,0.45,3,3,1,907,4
0.132879113285,0.671997028993,1.08746343457,0.102997712147,0.511000000001,0.45,2,2,1,908,4
0.295804070078,0.034566329367,0.00378180918963,1.12022329077,0.517000000001,0.45,3,3,1,909,4
0.653856710169,1.05371477348,0.0759861120646,-0.00267052097665,0.549000000001,0.45,1,1,1,910,4
0.0240070638233,-0.00230146969675,1.0286117476,-0.0637615682502,0.401000000001,0.45,2,2,2,911,4
1.0888952819,0.260055994603,0.0502708339531,0.0152375997856,0.412000000001,0.45,0,0,2,912,4
0.502357603031,1.20503288532,0.063788033088,-0.00612203913076,0.496000000001,0.45,1,1,1,913,4
1.00193745436,0.23000406388,0.114708745152,0.00379839012852,0.572000000001,0.45,0,0,1,914,4
0.354907800438,0.127519325354,0.199145392844,1.01140554465,0.559000000001,0.45,3,3,1,915,4
1.02976865638,0.217806693927,0.0481752139127,-0.0386588804202,0.476000000001,0.45,0,0,1,916,4
0.314517937805,0.104865397801,0.16496606574,1.04572596083,0.549000000001,0.45,3,3,1,917,4
0.282628701394,0.0949124361054,1.02544985572,-0.0489598832291,0.434000000001,0.45,2,2,2,918,4
0.464955153837,1.10147407285,-0.00170349156998,-0.0224468693785,0.395000000001,0.45,1,1,2,919,4
0.168630269067,0.06434287219,1.0231338099,-0.0812926967183,0.384000000001,0.45,2,2,2,920,4
0.243021202327,0.0469573088625,0.0807414756497,1.03428489845,0.477000000001,0.45,3,3,1,921,4
1.02461082434,0.420989945181,0.0111233646485,-0.0604411226965,0.506000000001,0.45,1,0,-1,922,4
1.01842214589,0.117538151402,0.0164098966859,-0.0135329535645,0.419000000001,0.45,0,0,2,923,4
0.518761244936,1.29444785704,0.0300464435816,0.0234920616231,0.477000000001,0.45,1,1,1,924,4
0.23821697389,0.0931540452062,0.235193940669,1.06204886227,0.561000000001,0.45,3,3,1,925,4
1.03210097147,0.114649207276,-0.00757383130952,-0.125731337738,0.478000000001,0.45,0,0,1,926,4
0.210165264574,0.0616028379252,1.13268750228,-0.0266414255891,0.407000000001,0.45,2,2,2,927,4
1.11032964477,0.0467113469721,0.0403329237938,0.00377202430809,0.429000000001,0.45,0,0,2,928,4
0.380217464123,1.16847018305,0.194181113786,0.0332553111261,0.462000000001,0.45,1,1,1,929,4
0.181406306177,0.0692945939157,0.0445390276556,1.01053400492,0.438000000001,0.45,3,3,2,930,4
0.115160933386,0.0405830305112,1.03113263971,-0.10148131907,0.379000000001,0.45,2,2,2,931,4
0.262666434439,1.15096137885,0.0336581626396,-0.0196778668183,0.361000000001,0.45,1,1,2,932,4
0.0632730333637,0.0228000488495,1.00802788361,-0.0811428163665,0.376000000001,0.45,2,2,2,933,4
0.252520807586,0.000495057924797,0.528410314917,1.07962737233,0.452000000001,0.45,3,3,1,934,4
1.00734380383,0.0254581620424,-0.0141190914786,-0.104022679216,0.505000000001,0.45,0,0,1,935,4
0.25614393913,0.0425875215683,1.03930104029,0.014972745456,0.429000000001,0.45,2,2,2,936,4
1.06524731308,-0.00830368492746,-0.0227109657437,-0.0400689130115,0.433000000001,0.45,0,0,2,937,4
0.300068654772,0.00479781232279,0.015834063228,1.06048779974,0.464000000001,0.45,3,3,1,938,4
0.372328412988,1.01169485844,0.0649205488357,0.0193341965336,0.398000000001,0.45,1,1,2,939,4
1.06249473245,0.109367513811,0.0545982985879,0.0114707003448,0.482000000001,0.45,0,0,1,940,4
0.0623718435411,0.0573591361591,1.1272702297,0.0334803119027,0.400000000001,0.45,2,2,2,941,4
0.938047903988,1.09624707978,0.147746158878,-0.012756214399,0.526000000001,0.45,1,1,1,942,4
0.25501611757,0.115366093771,0.225940555332,1.04175570122,0.527000000001,0.45,3,3,1,943,4
0.129297536504,0.104477842003,1.08436180054,-0.0276655245154,0.461000000001,0.45,2,2,1,944,4
0.300637381797,0.141808524391,0.041114630009,1.06806293153,0.528000000001,0.45,3,3,1,945,4
1.00825943999,0.542626789401,0.0525682563175,-0.109091040157,0.464000000001,0.45,1,0,-1,946,4
1.10686688951,0.334446779018,0.0596008815118,-0.0406587763902,0.414000000001,0.45,0,0,2,947,4
0.276132050191,0.0726844381157,0.0341729347766,1.04929720298,0.464000000001,0.45,3,3,1,948,4
1.14754924247,0.238171972497,0.049525672756,-0.0942326000247,0.451000000001,0.45,0,0,1,949,4
0.31271127047,1.08268975785,0.171623706783,-0.0225418628748,0.503000000001,0.45,1,1,1,950,4
0.0768134432906,0.0494445294864,1.09565870396,-0.0137819138517,0.384000000001,0.45,2,2,2,951,4
1.13001578046,0.191550123456,0.0210905146121,0.0706840958037,0.539000000001,0.45,0,0,1,952,4
0.315887035911,0.0874717391298,0.0799062294098,1.06747188305,0.448000000001,0.45,3,3,2,953,4
0.180917685745,0.26006025145,1.04825570925,-0.00225441798916,0.416000000001,0.45,2,2,2,954,4
0.449678187551,1.15141558915,0.00925685513605,-0.058116080742,0.379000000001,0.45,1,1,2,955,4
0.188367275592,0.111707821117,0.122073424278,1.13508042953,0.487000000001,0.45,3,3,1,956,4
0.51985473154,1.0863335059,0.0320946081955,-0.104223609235,0.448000000001,0.45,1,1,2,957,4
0.139093950231,0.185401102508,1.0334430916,0.524831373502,0.361000000001,0.45,2,2,2,958,4
1.06697355445,0.10270967953,0.205106114028,-0.0172745029211,0.458000000001,0.45,0,0,1,959,4
0.168148989579,0.193493342442,1.09305698138,-0.0246088201572,0.351000000001,0.45,2,2,2,960,4
0.251933927876,0.0969131497257,0.0683533853319,1.02573716481,0.323000000001,0.45,3,3,2,961,4
1.00761443162,0.135856346934,0.00904495406009,-0.0132372459621,0.345000000001,0.45,0,0,2,962,4
0.546945651236,1.05068689257,0.231564396384,0.00576651159125,0.438000000001,0.45,1,1,2,963,4
1.13274458979,0.239644280212,0.0031127213568,-0.0368327423144,0.487000000001,0.45,0,0,1,964,4
0.19405795325,0.0434373568664,0.24285533771,1.13586428308,0.466000000001,0.45,3,3,1,965,4
0.536400644707,1.08048146074,0.00150892267472,-0.00499603374611,0.423000000001,0.45,1,1,2,966,4
0.134370747553,0.124150099611,1.12140431268,0.00629968136892,0.357000000001,0.45,2,2,2,967,4
0.174618659381,0.0902136501623,0.259472805296,1.06962097375,0.360000000001,0.45,3,3,2,968,4
0.11837811071,0.0948277213997,1.11308557103,-0.0294117596563,0.344000000001,0.45,2,2,2,969,4
1.03572020687,0.125034101498,-0.0128939198503,-0.0232848728262,0.251000000001,0.45,1,0,-1,970,4
0.139978287793,0.223875878762,-0.00696708039874,-0.00472231465881,0.7,0.45,3,-1,0,972,4
1.18860920269,0.287032759989,0.0531287732338,0.0355793543825,0.440000000001,0.45,0,0,2,972,4
0.768277517138,1.20643003926,0.0994206645675,0.103532079469,0.460000000001,0.45,1,1,1,973,4
1.07029322269,0.229538443515,0.0149617668409,-0.00298939229971,0.447000000001,0.45,0,0,2,974,4
0.192122046939,0.151519929264,1.02800829895,-0.0253030975156,0.341000000001,0.45,2,2,2,975,4
1.13619505736,0.243477154749,0.0362450939971,0.00460803194248,0.416000000001,0.45,0,0,2,976,4
0.540873785246,1.12642568436,0.0748308447349,0.0243052015245,0.493000000001,0.45,1,1,1,977,4
0.319072998698,0.14815023481,0.0714032119843,1.05802949264,0.501000000001,0.45,3,3,1,978,4
0.275134700685,0.131128714666,1.10676575271,-0.00974460932382,0.391000000001,0.45,2,2,2,979,4
0.246630506153,1.05530419833,0.00891271896033,-0.0312837641175,0.364000000001,0.45,1,1,2,980,4
0.141257817594,0.0868026626155,1.00476642074,-0.0817558693177,0.404000000001,0.45,2,2,2,981,4
0.339264595801,0.282303699716,0.013417552986,1.04371061541,0.545000000001,0.45,3,3,1,982,4
1.1372471302,0.27935681008,0.0125226939942,-0.0137849013886,0.461000000001,0.45,0,0,1,983,4
0.385915634624,0.183332221232,0.330339380101,1.01094550059,0.418000000001,0.45,3,3,2,984,4
0.4832786978,1.09474099311,0.0571700511507,0.0205303286965,0.448000000001,0.45,1,1,2,985,4
1.03040030031,0.166667935333,0.119604820734,0.0565380316995,0.447000000001,0.45,0,0,2,986,4
0.297332748442,0.192537118224,1.11541638301,0.0822252994274,0.355000000001,0.45,2,2,2,987,4
1.00575772309,0.126938356083,0.0638106282664,0.0538965479352,0.419000000001,0.45,0,0,2,988,4
0.350327109023,0.145822979326,0.358429185675,1.04001844061,0.445000000001,0.45,3,3,2,989,4
0.280147342639,0.110858133731,1.03591389764,-0.0241959758915,0.423000000001,0.45,2,2,2,990,4
0.426387787376,1.1218360433,0.321168370869,-0.019641730126,0.376000000001,0.45,1,1,2,991,4
0.325764855847,0.0297193226041,0.359545210682,1.09244127914,0.481000000001,0.45,3,3,1,992,4
0.590084768758,1.00851128942,-0.00169746870051,-0.075101382528,0.477000000001,0.45,1,1,1,993,4
0.0920889221658,0.102897937268,1.06812992455,0.0614854876378,0.378000000001,0.45,2,2,2,994,4
0.0987276290203,0.0396893610134,0.00489010775598,1.0035237739,0.432000000001,0.45,3,3,2,995,4
1.11566438794,0.13449495329,0.0366458095801,-0.0520860172697,0.348000000001,0.45,0,0,2,996,4
0.240052714783,0.156454216601,1.09018371905,-0.0416459658759,0.317000000001,0.45,2,2,2,997,4
1.36279746641,0.695575127702,0.111332463115,0.124207905667,0.565000000001,0.45,0,0,1,998,4
0.309522015212,1.02791374174,0.0248980172136,0.0925393711439,0.430000000001,0.45,1,1,2,999,4
0.318551293126,1.11444072271,-0.0143173740265,0.0180881282105,0.445000000001,0.45,0,1,-1,1000,4
0.233971005548,0.119068506549,0.00938472546342,1.08803777483,0.503000000001,0.45,3,3,1,1001,4
0.39901438551,1.13417137624,0.0371275968809,-0.0338634419738,0.440000000001,0.45,1,1,2,1002,4
0.068171647191,0.0420525066554,1.01201779783,-0.0383552633438,0.411000000001,0.45,2,2,2,1003,4
0.35548970415,0.101902179275,0.0211103945705,1.07985598642,0.503000000001,0.45,3,3,1,1004,4
0.236295428482,0.0871452370519,1.01462011472,-0.0123221696664,0.501000000001,0.45,2,2,1,1005,4
0.480253583673,1.01621868084,0.0125765820668,-0.0300998941423,0.430000000001,0.45,1,1,2,1006,4
0.150072387348,0.0149059527782,0.500450610559,1.00175313582,0.439000000001,0.45,3,3,2,1007,4
1.10398578928,0.189791413717,0.0288226901008,-0.056388045711,0.359000000001,0.45,0,0,2,1008,4
0.154538130764,0.114473466268,1.04209514363,0.0284082699413,0.339000000001,0.45,2,2,2,1009,4
1.05712415176,0.0636434708326,-0.0344814677297,0.0313821228583,0.342000000001,0.45,0,0,2,1010,4
0.50176882915,1.07910528612,0.0344702979413,0.0501444476187,0.416000000001,0.45,1,1,2,1011,4
1.09929173402,0.0947108710294,-0.000339724972624,0.00523904217112,0.530000000001,0.45,0,0,1,1012,4
0.16515898993,0.068227249494,1.01214866838,-0.0560657083601,0.466000000001,0.45,2,2,1,1013,4
0.0461134838325,-0.00165136847484,0.29202359418,1.08880847976,0.494000000001,0.45,3,3,1,1014,4
0.526358012949,1.14367029821,0.0293778920647,-0.0576035336813,0.477000000001,0.45,1,1,1,1015,4
0.110260926352,0.069330225915,0.0187931816809,1.06965947919,0.439000000001,0.45,3,3,2,1016,4
0.0922387311716,0.385304698022,1.1078296093,0.0668185234871,0.488000000001,0.45,2,2,1,1017,4
0.331651997518,1.0087480574,0.0211831571391,-0.0157812202722,0.502000000001,0.45,1,1,1,1018,4
0.0446733876291,0.0219921730175,1.03654090755,-0.0187512724199,0.443000000001,0.45,2,2,2,1019,4
1.06943649796,0.0895193780001,-0.0289421340076,0.0425703123254,0.417000000001,0.45,0,0,2,1020,4
0.365810519727,1.11124726131,0.0137113997053,0.0342995998635,0.446000000001,0.45,1,1,2,1021,4
1.07918540482,0.101253703462,-0.000999091701643,0.00809901127471,0.558000000001,0.45,0,0,1,1022,4
0.111134857738,0.00690860781475,0.0802333550204,1.16578842377,0.506000000001,0.45,3,3,1,1023,4
1.10016936372,0.0546786739495,0.0422043284097,-0.106883147439,0.443000000001,0.45,0,0,2,1024,4
0.184697769053,0.0796904654273,1.09110998514,0.0154568587595,0.332000000001,0.45,2,2,2,1025,4
1.0851955729,0.0632844211337,-0.00193447612341,0.00540352896031,0.422000000001,0.45,1,0,-1,1026,4
-0.0111728814307,0.0498457504813,0.0613622181969,1.05216673358,0.458000000001,0.45,3,3,1,1027,4
0.0996411411062,0.060150781223,1.02177122144,0.331130495605,0.481000000001,0.45,2,2,1,1028,4
0.0568633287958,0.013095976294,0.10277404517,1.11127643552,0.469000000001,0.45,3,3,1,1029,4
0.624963575418,1.01966402212,0.136302650829,-0.0320108708098,0.535000000001,0.45,1,1,1,1030,4
-0.00211174414443,0.0328014816673,1.01459398827,0.0808492089126,0.389000000001,0.45,2,2,2,1031,4
1.03304204848,0.0688247118881,0.043848894645,-0.0450950183328,0.417000000001,0.45,0,0,2,1032,4
0.1112000599,0.0572595892644,0.0675146534759,1.10669254784,0.446000000001,0.45,3,3,2,1033,4
1.08481253781,0.0652365759972,0.0408156705426,-0.0905285255154,0.473000000001,0.45,0,0,1,1034,4
0.520793310146,1.01791533014,0.143733821632,0.109981258371,0.681000000001,0.45,1,1,1,1035,4
1.00346047308,0.107179952388,-0.015951356158,-0.00880831055002,0.528000000001,0.45,0,0,1,1036,4
0.237644697398,0.0434739183415,-0.0176278570199,1.2099980113,0.460000000001,0.45,3,3,1,1037,4
0.225584574233,0.0583507917693,1.05140015569,-0.0418653064158,0.361000000001,0.45,2,2,2,1038,4
0.428409873023,1.20622201333,0.208127037998,-0.00272456639789,0.391000000001,0.45,1,1,2,1039,4
0.0853246542009,0.00941584630175,1.08883780532,-0.0340343782732,0.468000000001,0.45,2,2,1,1040,4
0.0610762460122,0.00823549030008,0.0446799680405,1.18903801908,0.416000000001,0.45,3,3,2,1041,4
1.11643893135,0.0691217776145,0.0954008791552,0.00550969581694,0.326000000001,0.45,1,0,-1,1042,4
1.07267286822,0.0530643797015,0.0435898601115,0.0173725011082,0.314000000001,0.45,0,0,2,1043,4
0.115290166622,0.043934348758,1.07650600185,0.117806419699,0.409000000001,0.45,2,2,2,1044,4
1.28324817253,0.0147720530887,0.0274821789994,0.0304108706257,0.301000000001,0.45,0,0,2,1045,4
0.497562405992,1.08348135334,0.38290488828,0.00850014467098,0.512000000001,0.45,1,1,1,1046,4
0.0159621164915,0.0279889150444,0.031179088942,1.03308107136,0.485000000001,0.45,3,3,1,1047,4
1.14244127528,0.11168408629,0.108313509329,-0.0546800440254,0.417000000001,0.45,0,0,2,1048,4
0.225510398592,0.0281326118611,-0.00710637893448,1.11210456533,0.575000000001,0.45,3,3,1,1049,4
0.0911691568937,0.0578997397506,0.060632635822,0.0387287699043,0.7,0.45,1,-1,0,1051,4
0.278313458966,1.01702867202,0.0101176553747,0.0468013152576,0.246000000001,0.45,2,1,-1,1051,4
0.215845310296,0.332541302288,0.24354594095,0.229043017589,0.7,0.45,1,-1,0,1053,4
0.4527056579,0.27854211924,0.356123626022,0.307377638398,0.7,0.45,3,-1,0,1054,4
0.372712735271,0.245194101356,1.04093278915,0.364976042898,0.656000000001,0.45,2,2,1,1054,4
0.252587279434,0.0590965562248,0.148913023105,1.01017464925,0.509000000001,0.45,3,3,1,1055,4
1.05381441568,0.144715202556,0.0402934712312,0.0542444670618,0.382000000001,0.45,0,0,2,1056,4
0.303370728728,0.133266054321,1.0603855932,0.199421661104,0.368000000001,0.45,2,2,2,1057,4
1.13608766959,0.109614369807,0.0290597445376,0.115939159499,0.577000000001,0.45,0,0,1,1058,4
0.409500596573,0.155083602794,0.0365086663681,0.0769434011259,0.7,0.45,1,-1,0,1060,4
0.541011479132,1.12459922665,0.0195684504716,0.0979248013795,0.221000000001,0.45,0,1,-1,1060,4
0.407493405208,0.0406993371221,0.223239930273,1.03831391457,0.600000000001,0.45,3,3,1,1061,4
0.506051880689,1.12208501317,-0.00589581125016,0.0407975366256,0.547000000001,0.45,1,1,1,1062,4
0.194378725673,0.0338431899711,1.04387803667,0.0855075552954,0.420000000001,0.45,2,2,2,1063,4
0.309375777115,0.0456115503016,-0.0286598776138,1.00550716457,0.494000000001,0.45,3,3,1,1064,4
0.389077825095,1.18476144466,0.0308065273542,0.0335615265554,0.480000000001,0.45,2,1,-1,1065,4
0.565356511436,1.03154097023,-0.0115776205854,0.024509599075,0.402000000001,0.45,1,1,2,1066,4
1.06482768138,0.116233359381,-0.0150376983861,0.00408230245995,0.320000000001,0.45,0,0,2,1067,4
0.0529830992967,1.00837794722,0.00338957140704,0.0338934342591,0.480000000001,0.45,1,1,1,1068,4
0.0249425570197,-0.00508634074995,0.540667722932,1.01119026462,0.498000000001,0.45,3,3,1,1069,4
1.04454143071,0.102872611683,-0.0284626221045,-0.0613229372972,0.491000000001,0.45,0,0,1,1070,4
0.122676993402,0.117150349746,1.04215340379,0.138237853858,0.504000000001,0.45,2,2,1,1071,4
1.01871029967,0.0848882064137,-0.0065391916305,0.00624531519553,0.423000000001,0.45,0,0,2,1072,4
0.226767238655,0.0422798566929,0.0546767808843,1.02631538834,0.443000000001,0.45,3,3,2,1073,4
0.0994147046444,0.0430655827345,1.09151720567,-0.00880098622784,0.417000000001,0.45,2,2,2,1074,4
0.560609922201,1.03712784895,0.0504168923314,0.0136380776021,0.333000000001,0.45,1,1,2,1075,4
0.160823563462,0.0379679249744,1.14441836318,0.0871882013876,0.389000000001,0.45,2,2,2,1076,4
0.116580545204,0.0150023356214,0.213969783611,1.12810395603,0.464000000001,0.45,3,3,1,1077,4
1.05245222883,0.350031801253,0.00258989351628,-0.0417860841114,0.480000000001,0.45,1,0,-1,1078,4
0.262688230191,0.0432950090789,0.0134265517405,1.11554656458,0.547000000001,0.45,3,3,1,1079,4
1.13163681302,0.123244721978,0.0380930943111,-0.0148992171373,0.531000000001,0.45,0,0,1,1080,4
0.269957554245,0.074563146655,1.08990348207,0.0376232233196,0.418000000001,0.45,2,2,2,1081,4
1.09345503783,0.0431126600795,-0.00378152317092,0.011697498553,0.433000000001,0.45,0,0,2,1082,4
0.313313642619,1.2561899218,0.0500144305701,0.105417251281,0.428000000001,0.45,1,1,2,1083,4
1.03998411944,0.143665968547,0.00667336321189,0.0351309509735,0.474000000001,0.45,0,0,1,1084,4
1.19141861603,0.618308705661,0.417194442239,0.734109913329,0.0090000000006,0.45,2,0,-1,1085,5
1.02994824968,0.283124278678,0.199429067886,0.32706007842,0.273000000001,0.45,0,0,2,1086,5
0.530419781592,0.259279676559,1.10176817368,0.409223010246,0.287000000001,0.45,3,2,-1,1087,5
0.792497631903,1.14746508528,0.0615031896736,0.188343975533,0.356000000001,0.45,1,1,2,1088,5
0.472837282528,0.0908746219652,0.0440687715127,1.04526669397,0.691000000001,0.45,3,3,1,1089,5
1.00798223597,0.193464094931,0.093946845989,0.280066744504,0.481000000001,0.45,0,0,1,1090,5
0.371365886384,0.0759651957296,0.138969217127,1.0061982402,0.292000000001,0.45,1,3,-1,1091,5
1.06685362627,0.19621384915,0.0594409971336,0.166030793152,0.415000000001,0.45,0,0,2,1092,5
0.4815973336,0.15785836841,1.06287155282,0.211810870535,0.343000000001,0.45,2,2,2,1093,5
0.383591763634,0.0860147308548,0.0853224863861,1.00808179665,0.383000000001,0.45,3,3,2,1094,5
0.504563834396,0.159734992128,1.06404545135,0.158674633705,0.350000000001,0.45,2,2,2,1095,5
1.08616691228,0.18293723188,0.114422614687,0.115412112381,0.280000000001,0.45,1,0,-1,1096,5
0.530077472944,0.0722028303944,1.19054868861,0.212526774318,0.399000000001,0.45,2,2,2,1097,5
0.484113869474,0.0763411056318,0.275709209912,1.05492107123,0.354000000001,0.45,3,3,2,1098,5
0.556821437569,1.04130063972,0.0927687287393,0.12664269894,0.405000000001,0.45,1,1,2,1099,5
1.10996739984,0.163176622794,0.0317829731884,0.0411429094407,0.336000000001,0.45,0,0,2,1100,5
0.664140629257,1.06372781438,0.533914285016,0.0663504563771,0.391000000001,0.45,1,1,2,1101,5
0.325648117842,0.1910547463,0.0514755073143,1.05079989843,0.460000000001,0.45,3,3,1,1102,5
1.04080335813,0.26521704288,0.0528743062291,0.126936909083,0.413000000001,0.45,0,0,2,1103,5
0.453409553882,0.112364759597,1.08024745818,0.103800367353,0.327000000001,0.45,2,2,2,1104,5
1.07255614213,0.0848397387724,0.00674497935413,0.0490962534897,0.308000000001,0.45,0,0,2,1105,5
0.26088495924,0.0612391899127,0.0969294261653,1.03266031623,0.436000000001,0.45,3,3,2,1106,5
0.435977032965,0.132203326392,1.09632614981,0.0661535978768,0.394000000001,0.45,2,2,2,1107,5
1.09137510202,0.112530007178,0.0260633383892,0.046582933486,0.301000000001,0.45,1,0,-1,1108,5
0.354373353312,0.117707383594,1.04496052458,0.0662105612798,0.517000000001,0.45,2,2,1,1109,5
0.458354779345,1.14170772364,0.149244848296,0.0681325922622,0.595000000001,0.45,1,1,1,1110,5
0.239678333721,0.112098081809,0.121831253115,1.06568716948,0.565000000001,0.45,3,3,1,1111,5
1.09344907626,0.123756528511,0.0344755170731,-0.00800324978462,0.451000000001,0.45,0,0,1,1112,5
0.541001510689,1.00583495276,0.0552762140124,0.0570640026324,0.425000000001,0.45,1,1,2,1113,5
1.06786111971,0.173712704518,0.0139646379737,0.00158111327058,0.497000000001,0.45,0,0,1,1114,5
0.361852071143,0.0526474019912,0.0695256415453,1.09190577917,0.475000000001,0.45,3,3,1,1115,5
0.739019863984,1.08290863356,0.138534384846,0.0641194349533,0.551000000001,0.45,1,1,1,1116,5
0.339192844247,0.108580764341,1.0008735986,0.470755200729,0.453000000001,0.45,2,2,1,1117,5
0.394130910385,0.0596953714971,0.164324884265,1.05464708135,0.448000000001,0.45,3,3,2,1118,5
0.245264062284,0.0806793213089,1.0790432899,0.02387243264,0.465000000001,0.45,2,2,1,1119,5
0.474107546111,1.03876758215,0.00791664397229,0.0239955027941,0.369000000001,0.45,0,1,-1,1120,5
0.18637475302,0.0591945607942,1.06822510721,0.0521724324463,0.464000000001,0.45,2,2,1,1121,5
1.09585883601,0.106953458554,0.0608575350528,0.00271921554642,0.404000000001,0.45,0,0,2,1122,5
0.443224843364,1.13793845013,0.0701072530715,-0.010346681396,0.383000000001,0.45,1,1,2,1123,5
0.126475932634,0.025197618628,0.158504711748,1.02622382479,0.441000000001,0.45,3,3,2,1124,5
0.359681598575,0.0738688872136,1.05418460911,-0.0212736776352,0.366000000001,0.45,1,2,-1,1125,5
1.07397940663,0.451502274677,0.00289527273747,-0.0803738160601,0.430000000001,0.45,0,0,2,1126,5
0.126319986358,0.126478364269,1.11229755174,0.0522256290457,0.334000000001,0.45,3,2,-1,1127,5
0.317129892813,0.168817406427,0.0139914592806,-0.0750970155197,0.7,0.45,0,-1,0,1129,5
0.361327213768,0.200527365477,0.0336339844438,-0.0243390527388,0.7,0.45,2,-1,0,1130,5
0.513036893372,1.00091657306,0.0674764549479,-0.0546838155389,0.551000000001,0.45,1,1,1,1130,5
0.362686525369,0.116556229426,1.00534766674,0.120317211382,0.423000000001,0.45,2,2,2,1131,5
0.383118906658,0.06992020028,0.0754871806743,1.06432141545,0.477000000001,0.45,3,3,1,1132,5
0.278278556602,0.101858353813,1.00961801026,0.0218260263534,0.597000000001,0.45,2,2,1,1133,5
0.25617911134,0.0239340455141,0.112231354454,1.03028510718,0.601000000001,0.45,3,3,1,1134,5
1.04325319843,0.118114592183,0.030439992367,0.00050596188939,0.407000000001,0.45,0,0,2,1135,5
0.433372192444,1.19125368744,0.0383667701974,-0.0300539960725,0.464000000001,0.45,1,1,1,1136,5
0.282574131846,0.121447419296,0.0533179571408,1.04494486605,0.490000000001,0.45,3,3,1,1137,5
0.511237188642,1.10981184099,0.0903411787698,-0.0734612266865,0.513000000001,0.45,1,1,1,1138,5
1.01124090451,0.293270867117,0.0240621402338,-0.0433974198215,0.371000000001,0.45,0,0,2,1139,5
0.414653237394,0.0857327441077,0.321416891639,1.50842306104,0.468000000001,0.45,3,3,1,1140,5
0.296391284839,0.0708428619867,1.14735646289,-0.00775758577255,0.442000000001,0.45,2,2,2,1141,5
0.363673646613,1.09085080353,0.23996193215,-0.0437882090423,0.446000000001,0.45,1,1,2,1142,5
0.136090898205,0.090089710015,1.02256773305,0.640326413787,0.487000000001,0.45,2,2,1,1143,5
1.01618590335,0.107235129561,0.151003924731,-0.0692485637246,0.473000000001,0.45,0,0,1,1144,5
0.24938751666,0.111989698791,1.11509819964,-0.0589723547839,0.425000000001,0.45,2,2,2,1145,5
0.464856564196,1.04910668394,0.0469804923691,-0.0170441195944,0.484000000001,0.45,1,1,1,1146,5
0.466950948401,0.143028122697,0.084311921012,1.06704192434,0.479000000001,0.45,3,3,1,1147,5
1.03322909887,0.211269468594,0.0340096693433,0.122943061547,0.457000000001,0.45,0,0,1,1148,5
0.388149308765,0.25531384383,0.134677569894,1.09386543938,0.562000000001,0.45,3,3,1,1149,5
0.371140231733,1.01767927317,0.0641206759365,0.13078829452,0.516000000001,0.45,1,1,1,1150,5
1.07539306529,0.218198981633,0.0191580999323,0.0551428985785,0.414000000001,0.45,0,0,2,1151,5
0.215537824549,0.11984086906,1.10103999063,0.0907834828708,0.396000000001,0.45,2,2,2,1152,5
0.388759826263,0.0895324360791,0.0839994182876,1.13923984532,0.404000000001,0.45,3,3,2,1153,5
0.339453572342,0.11917691647,1.13206343124,0.0933188450988,0.421000000001,0.45,2,2,2,1154,5
1.06078346695,0.133751549968,0.0385920903318,0.0231264553564,0.373000000001,0.45,0,0,2,1155,5
1.09978411892,0.202920629896,0.109942711174,0.249485410564,0.491000000001,0.45,1,0,-1,1156,5
0.182654980234,0.102559872217,1.04981250307,0.0533667238651,0.464000000001,0.45,2,2,1,1157,5
1.02203612181,0.19127481324,0.0642441454468,0.0200434165373,0.457000000001,0.45,0,0,1,1158,5
0.508799503679,1.1827546752,0.0645930952896,0.0363382663231,0.401000000001,0.45,1,1,2,1159,5
0.146433433219,0.0157385150105,0.267945477496,1.01912188831,0.458000000001,0.45,3,3,1,1160,5
1.01944908781,0.139710582186,0.0011240502353,0.0326460703447,0.593000000001,0.45,1,0,-1,1161,5
