force_0,force_1,force_2,force_3,rt,rt_threshold,target_finger,selected_finger,score,trial,run
1.28905820739,0.617254390925,0.494920467787,0.80069541809,0.005,0.45,1,0,-1,0,0
0.436779163137,0.171957383815,0.220475707748,1.14346701452,0.503,0.45,3,3,1,1,0
0.469119957463,0.156292372921,1.08861573914,0.227192618212,0.475,0.45,2,2,1,2,0
1.0953395037,0.172926410581,0.154640499268,0.16613083861,0.333,0.45,0,0,2,3,0
0.526144196276,0.124546726198,1.04730269392,0.222712474452,0.386,0.45,3,2,-1,4,0
1.01200940329,0.217315491927,0.144659661372,0.150853197487,0.389,0.45,0,0,2,5,0
0.701900185761,0.186432814176,1.02488784758,0.749457852579,0.46,0.45,2,2,1,6,0
0.687541158837,1.01305034359,0.338082532847,0.103991893708,0.492,0.45,1,1,1,7,0
1.04979476173,0.570297233913,0.243134465809,0.164365109422,0.421,0.45,0,0,2,8,0
0.645686212226,1.09623995202,0.621396830942,0.138970032213,0.438,0.45,1,1,2,9,0
0.616944568158,0.347943430395,1.06287354898,0.126567045929,0.397,0.45,2,2,2,10,0
0.683826270118,0.335730084334,0.629792075188,1.01161130721,0.352,0.45,3,3,2,11,0
0.660507669151,1.02345212056,0.449860890652,0.285519052641,0.352,0.45,1,1,2,12,0
0.54803047107,0.264358042694,0.846622518316,1.0041615001,0.473,0.45,3,3,1,13,0
0.577047598228,0.519157417308,1.04207745002,0.355530689316,0.5,0.45,2,2,1,14,0
1.09425021796,0.31630713423,0.312448911327,0.242767640501,0.386,0.45,0,0,2,15,0
0.458683707521,0.173053007031,0.904476876165,1.0006435311,0.425,0.45,3,3,2,16,0
1.06915058502,0.280160333553,0.24946763572,0.137480394966,0.314,0.45,0,0,2,17,0
0.652336576131,0.165485444346,1.01064121428,0.50080649721,0.346,0.45,2,2,2,18,0
0.735717736646,1.09934985477,0.422926885359,0.172929438226,0.359,0.45,1,1,2,19,0
0.634673400835,0.230623107921,1.02163387564,0.216191141025,0.333,0.45,2,2,2,20,0
0.565343711043,0.145863402324,0.509688058665,1.00102321547,0.261,0.45,3,3,2,21,0
0.807511430196,1.14643368466,0.449153970944,0.285369183874,0.47,0.45,1,1,1,22,0
1.06321713458,0.304761615828,0.251772972771,0.23100236399,0.349,0.45,0,0,2,23,0
0.581339793746,0.199291029129,1.01216765176,0.281958929256,0.296,0.45,1,2,-1,24,0
1.03254861569,0.434870633826,0.307261320956,0.231247694176,0.373,0.45,0,0,2,25,0
0.952825182431,0.356193408018,0.509608054732,1.0656515486,0.477,0.45,3,3,1,26,0
0.826867580244,0.275197079343,1.04956902686,0.359874097617,0.576,0.45,2,2,1,27,0
1.00465454175,0.286698456457,0.335542384354,0.181083497042,0.528,0.45,0,0,1,28,0
0.700580408136,0.20730202023,1.05985580964,0.18708521629,0.448,0.45,2,2,2,29,0
0.49723495086,0.09641905756,0.698180409331,1.0325436345,0.431,0.45,3,3,2,30,0
0.68323879692,1.14195337413,0.312509896766,0.143502991261,0.392,0.45,1,1,2,31,0
0.495487368749,0.163776444772,0.992061722064,1.04748239588,0.556,0.45,3,3,1,32,0
1.07410519775,0.331171512262,0.214448664067,0.168419130049,0.408,0.45,0,0,2,33,0
0.710815418378,1.06183935862,0.425706487649,0.242726964978,0.427,0.45,1,1,2,34,0
0.545606291155,0.244281916676,1.00556398476,0.14610786133,0.34,0.45,2,2,2,35,0
1.05705707741,0.298400118095,0.23624856864,0.149846210258,0.361,0.45,1,0,-1,36,0
0.556385929316,0.206063680381,0.304870076684,1.06072997083,0.394,0.45,3,3,2,37,0
1.02678015743,0.375573063964,0.16336245581,0.160716072813,0.31,0.45,0,0,2,38,0
0.387863314929,0.152593862027,1.04376711175,0.21399460561,0.374,0.45,2,2,2,39,0
0.4993092553,0.14021148451,0.553211205253,1.01287668841,0.394,0.45,3,3,2,40,0
0.545227923117,0.127918944451,1.00725902277,0.238242325555,0.434,0.45,2,2,2,41,0
1.01550557265,0.537916865551,0.271262392176,0.206190637146,0.366,0.45,0,0,2,42,0
0.755762293318,1.0570418329,0.415448705789,0.224649239252,0.467,0.45,1,1,1,43,0
0.58213703635,0.192638011963,1.02215027777,0.20706769531,0.377,0.45,2,2,2,44,0
0.667812216783,1.00289707239,0.240222095038,0.187153293632,0.329,0.45,1,1,2,45,0
1.12895785799,0.459171033564,0.204057027214,0.211234459337,0.251,0.45,0,0,2,46,0
0.489801001614,0.147271548397,1.02491119225,0.202784130976,0.265,0.45,3,2,-1,47,0
0.704848323278,1.02217280834,0.437614427247,0.201765934281,0.371,0.45,1,1,2,48,0
1.22357943837,0.528327256059,0.13052972254,0.175507399656,0.399,0.45,0,0,2,49,0
0.539103367215,0.233633281293,0.282133607385,1.03691054453,0.491,0.45,3,3,1,50,0
0.597491856921,0.277718685728,1.02904406257,0.20351497443,0.531,0.45,2,2,1,51,0
1.07717987549,0.618597910908,0.167763317083,0.179114656261,0.503,0.45,0,0,1,52,0
0.354132421198,0.146724302654,1.02992883696,0.17703009172,0.428,0.45,2,2,2,53,0
0.412998128571,0.123574261153,0.577741312841,1.01193437376,0.419,0.45,3,3,2,54,0
0.225241163775,1.03782138328,0.367779329148,0.205397446406,0.375,0.45,1,1,2,55,0
0.245377376229,0.230454900828,0.411323965249,1.00384994864,0.451,0.45,3,3,1,56,0
1.10634942328,0.320011236556,0.167489612857,0.232031637306,0.428,0.45,0,0,2,57,0
0.546412222904,1.04449353497,0.356043029422,0.245552501915,0.411,0.45,1,1,2,58,0
0.325186808503,0.449148474125,1.00814737404,0.202966429177,0.44,0.45,2,2,2,59,0
1.08658761378,0.223791584919,0.228279875761,0.21786500501,0.354,0.45,1,0,-1,60,0
1.07240980919,0.346081504817,0.22130314414,0.177220777544,0.379,0.45,0,0,2,61,0
0.537728190301,0.301961841407,0.337079685468,0.489867674574,0.7,0.45,3,-1,0,63,0
0.518340176541,0.237928850404,0.357402074211,1.06215674247,0.043,0.45,2,3,-1,63,0
1.02827271854,0.584135177861,0.294230047151,0.203297525823,0.429,0.45,0,0,2,64,0
0.462932144089,0.124655098013,1.02015278024,0.228566380968,0.374,0.45,2,2,2,65,0
0.570027366557,0.273520464704,0.371607303598,0.239396933161,0.7,0.45,3,-1,0,67,0
0.64804269147,0.280156240515,0.439863817483,1.02477000617,0.128,0.45,1,3,-1,67,0
0.684099147213,0.320468000423,0.282857447798,1.02993099394,0.439,0.45,3,3,2,68,0
1.09472798683,0.39571310754,0.173316856559,0.176845107824,0.406,0.45,0,0,2,69,0
0.56026090481,0.273464785499,1.00250907551,0.207523940573,0.488,0.45,1,2,-1,70,0
0.328715654377,0.0476037596438,1.08127064311,0.127390967809,0.416,0.45,2,2,2,71,0
1.07644680774,0.228483745631,0.180431028895,0.209847702622,0.365,0.45,1,0,-1,72,0
1.18180644846,0.274519951132,0.171438700835,0.245360586988,0.504,0.45,0,0,1,73,0
0.147983992473,0.36032271169,1.04019333754,0.297589652866,0.438,0.45,2,2,2,74,0
0.510359057057,0.165936499043,0.440901808123,1.05630856419,0.548,0.45,3,3,1,75,0
0.152148400818,0.447862680198,1.04484801192,0.284182931978,0.514,0.45,2,2,1,76,0
1.19708875482,0.321784612939,0.404630223063,0.226550083376,0.37,0.45,0,0,2,77,0
0.203477903468,0.192798513166,0.70491597215,1.08786631375,0.406,0.45,3,3,2,78,0
0.224738729109,1.0149491675,0.316059298148,0.195514456686,0.318,0.45,1,1,2,79,0
0.504105240023,0.200136296201,1.03382108062,0.24259746705,0.408,0.45,2,2,2,80,0
0.819499258225,1.00787971987,0.258625394292,0.195364923418,0.372,0.45,1,1,2,81,0
0.353748702241,0.206360527977,0.318810360774,1.00363665847,0.373,0.45,3,3,2,82,0
1.09275305623,0.518392374719,0.225435510475,0.248761141936,0.355,0.45,0,0,2,83,0
0.3921436713,1.1196378579,0.242616459121,0.250024316595,0.358,0.45,1,1,2,84,0
0.461835977528,0.709317102258,1.11938054386,0.355180843553,0.353,0.45,2,2,2,85,0
0.507151734133,0.195903359703,0.719971299568,1.03090327537,0.322,0.45,3,3,2,86,0
1.10865487937,0.510880143624,0.244617502063,0.257182269201,0.309,0.45,0,0,2,87,0
0.393260968828,0.369980613949,1.03294699484,0.326900553484,0.29,0.45,3,2,-1,88,0
0.604531102294,0.347587650443,1.08267285009,0.27354976452,0.332,0.45,2,2,2,89,0
1.11912882078,0.420974980746,0.218278188748,0.351132953672,0.341,0.45,0,0,2,90,0
0.551881936883,1.02456302874,0.51646008696,0.536374974031,0.578,0.45,1,1,1,91,0
0.577214949809,0.19974815169,0.329760046762,1.06223283293,0.436,0.45,3,3,2,92,0
0.832479038696,1.1087213774,0.262432487126,0.188235146637,0.302,0.45,1,1,2,93,0
1.01291932833,0.425633329438,0.403882334376,0.287832310729,0.438,0.45,0,0,2,94,0
0.594094384642,0.29389333478,1.02336473272,0.246593599369,0.39,0.45,2,2,2,95,0
1.0172442512,0.388063480176,0.297333138032,0.199339608723,0.311,0.45,1,0,-1,96,0
0.744904164159,0.352071140773,1.00557614448,0.668447533969,0.467,0.45,2,2,1,97,0
0.623239613195,0.327637611573,0.468623195589,0.548089109919,0.7,0.45,3,-1,0,99,0
1.02700230898,0.359466913284,0.342990116457,0.292440850037,0.326,0.45,0,0,2,99,0
0.52479963851,0.329043499929,1.04687743356,0.329411665048,0.351,0.45,2,2,2,100,0
1.06377698611,0.330515974119,0.350860505018,0.229002562639,0.345,0.45,0,0,2,101,0
0.458248061107,0.279755707043,1.01629752853,0.301178455312,0.346,0.45,3,2,-1,102,0
0.534945776515,0.133193870917,1.07715400435,0.297580360687,0.388,0.45,2,2,2,103,0
0.661865663656,1.03736061229,0.7997357201,0.292697825545,0.371,0.45,1,1,2,104,0
0.555249687854,0.372839077689,0.347467918572,1.05140305105,0.344,0.45,3,3,2,105,0
0.746548937914,1.05162245382,0.222773083087,0.164279108201,0.356,0.45,1,1,2,106,0
1.07809821887,0.307844382842,0.196317416245,0.186364100665,0.341,0.45,0,0,2,107,0
1.03018575183,0.314116336608,0.571972026445,0.208187656474,0.404,0.45,1,0,-1,108,0
0.423449161094,0.250538378444,0.809129858561,1.03180505064,0.455,0.45,3,3,1,109,0
0.323122250282,0.228868171207,1.1354705497,0.45811277116,0.513,0.45,2,2,1,110,0
1.12630832589,0.386244832499,0.172048532543,0.210212790954,0.456,0.45,0,0,1,111,0
0.191181326349,0.159430223208,1.01628304797,0.279019287942,0.371,0.45,2,2,2,112,0
0.253104072311,0.173718420266,1.00250224493,0.217739090811,0.35,0.45,3,2,-1,113,0
1.04006571377,0.235656137008,0.198173544058,0.204859621713,0.334,0.45,0,0,2,114,0
0.328130719225,1.05390401345,0.258855162412,0.28447475472,0.389,0.45,1,1,2,115,0
0.476568301474,0.335795446781,1.03064063467,0.278982030535,0.33,0.45,2,2,2,116,0
0.672020802615,1.03274737751,0.153571628984,0.371226498605,0.396,0.45,1,1,2,117,0
1.00156183284,0.420703323633,0.157754472719,0.230957897289,0.272,0.45,0,0,2,118,0
0.467124486053,0.259942171791,0.680048857598,1.00745324483,0.41,0.45,3,3,2,119,0
0.622952970835,1.14457095406,0.171929966358,0.234680341051,0.382,0.45,1,1,2,120,0
0.598123866543,0.320712807155,1.04558471512,0.655817153281,0.582,0.45,3,2,-1,121,0
1.10858737408,0.331652362702,0.0953766664722,0.248571822066,0.429,0.45,0,0,2,122,0
0.279785239917,0.204258184793,1.01667593143,0.245480007123,0.355,0.45,2,2,2,123,0
0.337846235273,0.145995910868,0.630295057704,1.04034232129,0.403,0.45,3,3,2,124,0
0.105701994943,0.42805315606,1.03291970621,0.359767402393,0.49,0.45,2,2,1,125,0
1.01149328288,0.427725557884,0.528357925812,0.359012801329,0.483,0.45,0,0,1,126,0
0.358469135304,1.05372728765,0.381866044147,0.27304692424,0.431,0.45,1,1,2,127,0
1.00813450552,0.342957983555,0.378958593068,0.278797300143,0.388,0.45,0,0,2,128,0
0.29931079623,0.192541786394,0.510301771182,1.08037040098,0.384,0.45,3,3,2,129,0
0.179544311422,1.06258229436,0.38520630928,0.263866419325,0.436,0.45,1,1,2,130,0
0.204011680615,0.297931251491,1.00123629753,0.293183607876,0.427,0.45,2,2,2,131,0
0.257698738563,1.03794081499,0.479993086674,0.329330721169,0.377,0.45,1,1,2,132,0
0.184593841506,0.42419614465,1.0300653069,0.382627175874,0.42,0.45,2,2,2,133,0
1.04888715746,0.435825267186,0.450545082039,0.329127190719,0.376,0.45,0,0,2,134,0
0.445440701797,0.255923805957,0.496468099152,1.04620201131,0.361,0.45,3,3,2,135,0
0.402382383487,0.268792121145,1.04465881327,0.381877506945,0.372,0.45,2,2,2,136,0
0.673825826625,0.127240535211,0.50122222974,1.00730790811,0.388,0.45,3,3,2,137,0
1.05171444976,0.243808413972,0.318823453224,0.264663411105,0.391,0.45,0,0,2,138,0
0.562085741977,1.00801564858,0.274759839602,0.32064553079,0.404,0.45,1,1,2,139,0
0.494044848126,0.258739519308,0.465000877415,1.02977930075,0.398,0.45,3,3,2,140,0
0.645858375619,1.02292779048,0.794103409693,0.314635610846,0.388,0.45,1,1,2,141,0
1.0537895684,0.344661047959,0.128647906227,0.228692735911,0.342,0.45,0,0,2,142,0
0.205821475646,0.286905834869,1.0245004841,0.407289435251,0.372,0.45,2,2,2,143,0
0.572212165683,1.10079112187,0.315308610104,0.293124366942,0.401,0.45,1,1,2,144,0
1.07029771043,0.343399071793,0.247599292164,0.276520687258,0.366,0.45,0,0,2,145,0
0.329615746305,0.238440064848,1.05054009311,0.321079043769,0.301,0.45,2,2,2,146,0
0.370826753544,0.227161438208,0.759185522402,1.08322474222,0.372,0.45,3,3,2,147,0
1.00603401046,0.313949084499,0.347647820346,0.251153870353,0.351,0.45,0,0,2,148,0
0.332634554304,0.191258648768,0.480097806487,1.06255476354,0.359,0.45,3,3,2,149,0
0.516090636615,0.260119983799,1.05228419232,0.388056721429,0.431,0.45,2,2,2,150,0
1.02189897349,0.192737506245,0.196542552475,0.198401085576,0.367,0.45,0,0,2,151,0
0.476569938628,1.07814153745,0.237719689065,0.368514389964,0.596,0.45,1,1,1,152,0
0.336646872587,0.232221010445,1.0626917096,0.203244116687,0.476,0.45,2,2,1,153,0
0.454666944933,1.00315204777,0.180184389116,0.18289918541,0.401,0.45,1,1,2,154,0
0.25332880249,0.17811573652,0.644836223205,1.05632377447,0.37,0.45,3,3,2,155,0
1.05404266678,0.363320772637,0.276357346991,0.187536279693,0.336,0.45,1,0,-1,156,0
1.16667350872,0.26546512364,0.10969602814,0.239001319016,0.329,0.45,0,0,2,157,0
0.135523115714,0.316676881448,1.02072120814,0.309559214845,0.275,0.45,2,2,2,158,0
0.152312993519,0.549706393657,1.01621035404,0.297053391122,0.381,0.45,3,2,-1,159,0
0.146052744366,0.165557059559,1.01252065137,0.281060327383,0.423,0.45,2,2,2,160,0
1.05392485792,0.375014468775,0.202508142251,0.291860368505,0.441,0.45,0,0,2,161,0
0.107148713826,0.128371609075,0.465025074448,1.03037237394,0.395,0.45,3,3,2,162,0
1.01529155759,0.254020035068,0.168827781621,0.227097473249,0.371,0.45,0,0,2,163,0
0.0740159200973,1.08491810733,0.299761785916,0.268147563493,0.397,0.45,1,1,2,164,0
0.0834848934547,0.161974625922,0.668693780145,1.01311028081,0.402,0.45,3,3,2,165,0
0.233280106211,1.06063685981,0.15794366217,0.28490185857,0.414,0.45,1,1,2,166,0
0.112411831994,0.139727433435,1.06417687064,0.400788784999,0.428,0.45,2,2,2,167,0
0.117369043547,1.02036368326,0.142538793507,0.249841730404,0.397,0.45,1,1,2,168,0
1.14589252028,0.315826585102,0.162744645356,0.256579499663,0.368,0.45,0,0,2,169,0
0.123613956005,0.174271329916,1.06006631894,0.283174764674,0.422,0.45,2,2,2,170,0
0.197042332684,0.2562704282,0.563782409562,1.06310661469,0.52,0.45,3,3,1,171,0
1.00539566708,0.283113942971,0.176415857364,0.166245195256,0.537,0.45,0,0,1,172,0
0.254840358663,0.114878013572,0.193703049464,1.05280888913,0.384,0.45,3,3,2,173,0
0.0963361070228,0.141553997459,1.09990177252,0.268262535819,0.318,0.45,2,2,2,174,0
1.05406619767,0.553448393176,0.0996166816972,0.141275764142,0.38,0.45,0,0,2,175,0
0.271498951193,0.171798649496,1.04907031706,0.136725191215,0.329,0.45,1,2,-1,176,0
0.181739419342,0.423506205438,1.00144677411,0.182890485238,0.43,0.45,2,2,2,177,0
0.261982708776,1.04619935345,0.138615827519,0.120146969655,0.398,0.45,1,1,2,178,0
0.230956362778,0.22391633681,0.187310204656,1.0338731294,0.399,0.45,3,3,2,179,0
0.404999143004,1.00021182693,0.0769370964766,0.0657924708581,0.369,0.45,1,1,2,180,0
0.230468497003,0.24254848665,1.06197915193,0.298522578742,0.396,0.45,2,2,2,181,0
1.00722911219,0.297400053328,0.323468111082,0.152788574352,0.357,0.45,0,0,2,182,0
0.396626419947,0.357124467143,1.00223865633,0.312884568586,0.326,0.45,3,2,-1,183,0
0.319597509042,0.218771123367,1.0222680177,0.306929790626,0.349,0.45,2,2,2,184,0
0.42816143427,0.303121021947,0.837513956156,1.05464631891,0.404,0.45,3,3,2,185,0
1.04193098553,0.499935793896,0.379687797431,0.379914825403,0.399,0.45,0,0,2,186,0
0.305158673673,0.295894536939,1.05111956113,0.433961795657,0.371,0.45,2,2,2,187,0
0.424647682351,1.07578057302,0.277612348092,0.336538755076,0.438,0.45,1,1,2,188,0
1.12681550408,0.306562894719,0.325651964728,0.284056313777,0.433,0.45,0,0,2,189,0
0.898074005636,1.1623374573,0.18508130869,0.307659200375,0.451,0.45,1,1,1,190,0
0.27873549531,0.124531773529,0.300855897677,1.00617861227,0.414,0.45,3,3,2,191,0
0.408435251218,1.03563236874,0.235566825278,0.228806975689,0.352,0.45,1,1,2,192,0
0.422206225565,0.233289123085,0.475419189791,1.06475983549,0.418,0.45,3,3,2,193,0
0.473296029683,1.06773107145,0.286616572462,0.191906180059,0.452,0.45,2,1,-1,194,0
1.06813116206,0.242150455289,0.187800894925,0.285433276051,0.43,0.45,0,0,2,195,0
0.195334936047,0.207036384296,1.07896467819,0.244016893437,0.313,0.45,2,2,2,196,0
0.34093638824,0.136509836213,0.749115849414,1.05775369738,0.286,0.45,3,3,2,197,0
1.12146967357,0.305112699039,0.353742922658,0.316846016216,0.395,0.45,0,0,2,198,0
0.269009708163,0.209883830982,0.575753043385,1.02057951775,0.378,0.45,3,3,2,199,0
0.819699338419,1.03007994729,0.21026203345,0.295024502757,0.416,0.45,1,1,2,200,0
0.486216188391,0.346453475213,1.06590204498,0.299724611535,0.402,0.45,2,2,2,201,0
0.525798380735,1.02227322142,0.164495212919,0.307196810001,0.383,0.45,1,1,2,202,0
1.1162070017,0.547477784749,0.155505617652,0.263677261312,0.365,0.45,0,0,2,203,0
0.379017422647,1.03866232299,0.219254009546,0.262352527127,0.354,0.45,1,1,2,204,0
0.332011812335,0.413514102422,0.334975056354,1.01931973084,0.7,0.45,3,-1,0,206,0
0.332011812335,0.413514102422,0.334975056354,1.01931973084,1.14241949234e-13,0.45,2,3,-1,206,0
1.06221777872,0.512119992913,0.225970882027,0.31679487448,0.354,0.45,0,0,2,207,0
0.254976021035,0.358709667812,1.06462014717,0.285724693306,0.312,0.45,2,2,2,208,0
0.313297627856,0.172991339854,0.86070005199,1.06516063556,0.379,0.45,3,3,2,209,0
1.05355080734,0.58137509323,0.166319089329,0.230135998068,0.382,0.45,0,0,2,210,0
0.284941570748,0.150741835522,0.283486744994,1.0586650725,0.36,0.45,3,3,2,211,0
0.53266654374,1.06943177302,0.288174964169,0.314937815743,0.353,0.45,1,1,2,212,0
1.13330753382,0.543611430929,0.131553335029,0.262309022156,0.3,0.45,0,0,2,213,0
0.618364261697,1.09525436344,0.152808970669,0.287115695723,0.454,0.45,1,1,1,214,0
0.203545230188,0.329666630581,1.0013905893,0.352072649494,0.494,0.45,2,2,1,215,0
0.554814942751,1.10753048414,0.398018236017,0.381094604203,0.448,0.45,1,1,2,216,0
0.536341586281,0.219672480591,0.536363587973,1.02752894782,0.516,0.45,3,3,1,217,1
0.348807110913,0.25428729577,1.08136024553,0.391654573293,0.499,0.45,2,2,1,218,1
1.00188149937,0.296993635202,0.217888465393,0.309586891817,0.357,0.45,0,0,2,219,1
0.532131903211,1.07916323354,0.473068639288,0.259796690837,0.312,0.45,1,1,2,220,1
1.04551124488,0.416475423906,0.559240561507,0.266290227192,0.395,0.45,0,0,2,221,1
0.49215838334,0.0903862043957,1.03926605636,0.270476384213,0.264,0.45,2,2,2,222,1
0.973817286557,1.02341178482,0.216529108736,0.312218758164,0.363,0.45,1,1,2,223,1
0.423797889482,0.0819041361952,0.914782345498,1.12431570864,0.36,0.45,3,3,2,224,1
0.60427359933,1.09217963633,0.239847145625,0.323309263665,0.413,0.45,1,1,2,225,1
0.533219480963,0.540436529006,1.0207645977,0.280120818788,0.447,0.45,2,2,2,226,1
0.428727467773,0.0829439615842,0.233796770318,1.02894841429,0.399,0.45,3,3,2,227,1
1.00599847502,0.419397152669,0.203105184047,0.393888316324,0.355,0.45,0,0,2,228,1
0.607077619933,0.227071906397,1.00637938989,0.402196869914,0.322,0.45,3,2,-1,229,1
0.348758703778,0.141273481738,1.04141403303,0.415222350456,0.44,0.45,2,2,2,230,1
1.02972208332,0.205197078991,0.207248161347,0.319396823794,0.425,0.45,0,0,2,231,1
0.476050601878,1.08190273204,0.322078968874,0.265809764725,0.466,0.45,1,1,1,232,1
1.01525798663,0.333443522427,0.290791997623,0.241836178191,0.512,0.45,0,0,1,233,1
0.600848647679,0.165784874566,1.0668166399,0.22969612197,0.394,0.45,2,2,2,234,1
1.02345953052,0.358229509866,0.169781288584,0.290277590922,0.382,0.45,1,0,-1,235,1
0.392113737602,0.290452158227,1.04742421732,0.31700609896,0.451,0.45,2,2,1,236,1
0.548910800831,0.240268460446,0.259379801141,1.07116090785,0.36,0.45,3,3,2,237,1
0.673418513258,1.09370685596,0.208459599241,0.340083405326,0.35,0.45,1,1,2,238,1
0.479755286617,0.1491601542,0.368772619797,1.12714480107,0.386,0.45,3,3,2,239,1
1.06742628684,0.290332923918,0.263558739271,0.38376746041,0.328,0.45,0,0,2,240,1
0.405245945278,0.116172104078,0.244099678958,1.00809522352,0.33,0.45,3,3,2,241,1
0.447964829452,1.01751454626,0.309718024041,0.573100837756,0.375,0.45,1,1,2,242,1
1.0573103381,0.79777992754,0.0813937553281,0.205992822106,0.372,0.45,0,0,2,243,1
0.51460727709,0.308208418609,1.03348536901,0.333508749199,0.343,0.45,2,2,2,244,1
0.62352955446,1.00598753131,0.317402305105,0.400575790194,0.399,0.45,1,1,2,245,1
0.631910761128,0.514301270913,1.06214926925,0.281504605801,0.385,0.45,2,2,2,246,1
1.03509691585,0.551406849855,0.431706278949,0.313574424917,0.428,0.45,0,0,2,247,1
0.773672062943,1.06866917378,0.560199018214,0.315637512881,0.477,0.45,1,1,1,248,1
0.566364177638,0.377860276413,0.270366130785,1.00439551702,0.392,0.45,3,3,2,249,1
1.08889627164,0.46487768129,0.301304269317,0.51828208135,0.392,0.45,0,0,2,250,1
0.39506556421,0.0695245351608,0.793452486388,1.01437343302,0.38,0.45,3,3,2,251,1
0.513770723563,1.01091266898,0.237459824346,0.368767377957,0.325,0.45,2,1,-1,252,1
0.473274903778,0.171081660986,1.00622942373,0.395832930278,0.341,0.45,3,2,-1,253,1
0.469920327041,0.298986108648,1.06488161317,0.516241318,0.421,0.45,2,2,2,254,1
0.145448903071,1.00435193587,0.0868299657236,0.271588714656,0.501,0.45,1,1,1,255,1
1.05710781632,0.617970026597,0.300727775293,0.550708023955,0.395,0.45,0,0,2,256,1
0.276808294263,0.104078370465,1.09833303381,0.435693653704,0.352,0.45,2,2,2,257,1
0.559458853149,1.02397684233,0.238072921859,0.373215678549,0.485,0.45,0,1,-1,258,1
0.353302114321,0.0928125398617,1.07877565685,0.3965490045,0.357,0.45,1,2,-1,259,1
0.130805166078,0.361009459578,1.04492257711,0.391681008623,0.431,0.45,2,2,2,260,1
0.205447586591,0.0809827450548,0.48355483294,1.05649446147,0.35,0.45,3,3,2,261,1
1.07178139076,0.192502169908,0.276961996038,0.414146585509,0.388,0.45,0,0,2,262,1
0.240317770018,0.147178955916,1.07219408421,0.381595947896,0.336,0.45,3,2,-1,263,1
0.263303093997,1.04025660235,0.700518590615,0.269265450962,0.468,0.45,1,1,1,264,1
0.400813629571,0.182472471696,0.121050203851,1.02454008556,0.396,0.45,3,3,2,265,1
1.04751758612,0.191123807253,0.102640128183,0.224579218254,0.401,0.45,0,0,2,266,1
0.134227977248,0.235783527199,1.04334452671,0.380911381531,0.545,0.45,2,2,1,267,1
0.186990206796,1.02505206823,0.120238016077,0.246941445672,0.523,0.45,1,1,1,268,1
0.115797392497,0.0800078694128,1.07316451768,0.381376008756,0.471,0.45,2,2,1,269,1
0.423975968173,0.236925385438,0.174358500495,0.28240150858,0.7,0.45,0,-1,0,271,1
0.279230984933,1.11737209808,0.141840804323,0.304124555666,0.475,0.45,1,1,1,271,1
1.00534128665,0.248345218797,0.147691538698,0.313360368369,0.488,0.45,0,0,1,272,1
0.183716213494,0.211865369224,0.207946234056,1.03074905684,0.385,0.45,3,3,2,273,1
0.704786281369,1.00253779739,0.0699712318734,0.217016669277,0.4,0.45,1,1,2,274,1
0.236838626435,0.0842296103073,0.440399008684,1.05056903889,0.439,0.45,3,3,2,275,1
0.218468316706,0.13757278124,1.03212838356,0.420811326052,0.483,0.45,2,2,1,276,1
0.234568257744,0.0804728109875,0.164548909487,1.05429014543,0.436,0.45,3,3,2,277,1
1.01253157966,0.273072496349,0.183614790188,0.248658531268,0.382,0.45,0,0,2,278,1
0.166958324015,0.246912031473,1.15041733221,0.379571317659,0.323,0.45,2,2,2,279,1
0.213139682493,1.043262188,0.133466444643,0.265499694373,0.445,0.45,1,1,2,280,1
0.137494804187,0.125933846695,1.0946617311,0.250874200654,0.398,0.45,2,2,2,281,1
1.01034609469,0.158145924012,0.20761458711,0.188644715743,0.38,0.45,0,0,2,282,1
0.106124067952,1.02857983949,0.144712489438,0.274406949946,0.414,0.45,1,1,2,283,1
0.108810634731,0.0684094490243,0.293552016626,1.02363329233,0.38,0.45,3,3,2,284,1
0.142406178342,1.09866822336,0.0918614811194,0.190340742038,0.396,0.45,1,1,2,285,1
1.04054126331,0.110416184423,0.0627469095173,0.247390582937,0.359,0.45,0,0,2,286,1
0.100606721436,0.0844467262416,0.302116037378,1.16129542035,0.341,0.45,3,3,2,287,1
0.120676965754,0.0568775379217,1.00395986006,0.395131351472,0.408,0.45,2,2,2,288,1
0.141400124809,0.0667698793465,0.150364870365,1.13506785546,0.446,0.45,3,3,2,289,1
0.182697456824,0.162146608205,1.0459569047,0.421652321245,0.492,0.45,2,2,1,290,1
0.39147630765,1.01031110314,0.369540944512,0.340963623416,0.475,0.45,1,1,1,291,1
1.04543810553,0.232518070977,0.257105716367,0.38615296391,0.43,0.45,0,0,2,292,1
0.459752848417,1.02917704811,0.572075344047,0.377461055576,0.515,0.45,1,1,1,293,1
0.37803842436,0.314381751181,1.08419847495,0.330689797156,0.526,0.45,2,2,1,294,1
1.00408024638,0.420838003273,0.0965465681544,0.339534637728,0.486,0.45,0,0,1,295,1
0.514285710331,0.243611263243,0.32685849327,1.05877250888,0.345,0.45,3,3,2,296,1
0.288792622415,1.03119793235,0.615109272158,0.369146544488,0.432,0.45,1,1,2,297,1
0.26341534072,0.2250916542,0.83976258422,1.07682927192,0.462,0.45,3,3,1,298,1
1.06089228578,0.316133517159,0.102017619434,0.311573801748,0.463,0.45,0,0,1,299,1
0.174989437142,0.10877255662,1.0770174039,0.279597312805,0.393,0.45,2,2,2,300,1
0.414214284398,0.236226983328,0.229277781409,1.04129963045,0.303,0.45,3,3,2,301,1
0.247578798365,1.00443929608,0.418579854839,0.277330235121,0.418,0.45,2,1,-1,302,1
0.159005478096,1.07822015901,0.151802892507,0.232344487276,0.428,0.45,1,1,2,303,1
1.04155500576,0.267978705189,0.172044966489,0.297580913828,0.34,0.45,0,0,2,304,1
0.143013417284,0.177196892591,1.08040339332,0.428127366954,0.386,0.45,2,2,2,305,1
1.05843149952,0.226685130869,0.175171887567,0.555694462242,0.43,0.45,0,0,2,306,1
0.147339032802,1.1037563591,0.145363582122,0.363704862948,0.393,0.45,1,1,2,307,1
0.134698839251,0.180490735413,0.667312847542,1.07444162444,0.362,0.45,3,3,2,308,1
1.0975550173,0.456932467311,0.166899778827,0.295010833694,0.372,0.45,1,0,-1,309,1
0.121610770871,0.131011968067,1.03428452513,0.577929828212,0.379,0.45,2,2,2,310,1
0.14563361273,0.120176107316,0.212698913947,1.10677591887,0.369,0.45,3,3,2,311,1
0.147965891844,1.00552930005,0.163453996076,0.296490514871,0.347,0.45,0,1,-1,312,1
0.18698512406,0.0566719924369,0.274623939963,1.07917644243,0.375,0.45,3,3,2,313,1
1.09157613267,0.126042037287,0.0873966598158,0.278001388139,0.412,0.45,0,0,2,314,1
0.12423385809,1.09503592975,0.17672184201,0.261996460834,0.37,0.45,1,1,2,315,1
0.131307730528,0.154834892271,0.220187641883,1.0196592982,0.323,0.45,2,3,-1,316,1
0.498247376041,1.03755417429,0.10887495654,0.266549920755,0.554,0.45,1,1,1,317,1
1.00333004321,0.261472440935,0.0758527215035,0.273766933168,0.413,0.45,0,0,2,318,1
0.106180703892,0.145769099935,1.03731132506,0.330428370895,0.343,0.45,2,2,2,319,1
0.124554418057,0.131171929233,0.209836340774,1.05785496584,0.316,0.45,3,3,2,320,1
0.197510214634,1.03091497718,0.102665752872,0.364760611839,0.39,0.45,1,1,2,321,1
0.139289355052,0.186095665648,0.0952738678561,1.06456819549,0.391,0.45,3,3,2,322,1
0.122870100113,0.163304398088,1.00976083986,0.224157798026,0.39,0.45,2,2,2,323,1
1.0311223138,0.139552487309,0.0847329663634,0.30702066879,0.363,0.45,0,0,2,324,1
0.119747798541,0.188322823752,1.01080790408,0.434347417789,0.363,0.45,3,2,-1,325,1
0.129620324083,0.276764754402,0.195497828513,0.293180878453,0.7,0.45,0,-1,0,327,1
1.16167492397,0.256185594091,0.18071732047,0.290991648486,0.19,0.45,1,0,-1,327,1
0.125135280224,0.174675331505,1.04829279023,0.311529950792,0.325,0.45,2,2,2,328,1
1.07394754563,0.174118509693,0.0575597417878,0.273976388076,0.379,0.45,0,0,2,329,1
0.128058049363,0.123638048154,1.07122000744,0.245569021493,0.383,0.45,2,2,2,330,1
0.166302078762,1.0555515242,0.241423204687,0.198114092141,0.397,0.45,1,1,2,331,1
1.09576214704,0.33794150436,0.159198724813,0.310779324658,0.337,0.45,0,0,2,332,1
0.4335698298,0.191237717275,0.557395531408,1.03888410554,0.37,0.45,3,3,2,333,1
0.87062699894,1.03414468557,0.154569868949,0.302355130088,0.455,0.45,1,1,1,334,1
0.239284815342,0.0920732155385,0.456606834552,1.03564642576,0.395,0.45,3,3,2,335,1
0.331118836752,0.384420417766,1.01463161379,0.351177121824,0.326,0.45,2,2,2,336,1
0.440819786937,0.279950319017,0.224162591112,1.01368088879,0.383,0.45,3,3,2,337,1
1.03215147553,0.25609071453,0.138823655785,0.30207594336,0.367,0.45,0,0,2,338,1
0.616681924884,1.06274567329,0.447912422496,0.285105921861,0.394,0.45,1,1,2,339,1
0.312943034289,0.291973749285,1.00434178017,0.273715178181,0.37,0.45,2,2,2,340,1
1.10353675904,0.332231201763,0.122791265169,0.501877835519,0.412,0.45,1,0,-1,341,1
1.13135181721,0.362015419719,0.22806165061,0.298698147398,0.36,0.45,0,0,2,342,1
0.154864691641,0.282615637373,1.0440623214,0.439926207845,0.332,0.45,2,2,2,343,1
1.1518017869,0.599886923242,0.162778450987,0.342851712645,0.385,0.45,0,0,2,344,1
0.217281783531,0.148134532972,0.500764338777,1.07441347383,0.385,0.45,3,3,2,345,1
0.425525412483,1.00672422056,0.307489889022,0.250941905983,0.456,0.45,1,1,1,346,1
0.478230380173,0.198268690592,0.198221818586,1.02354216061,0.382,0.45,3,3,2,347,1
0.220268171215,0.291082519835,1.0753475151,0.228656742014,0.331,0.45,2,2,2,348,1
0.512509090709,0.205748611551,0.308977413346,1.1114780685,0.367,0.45,3,3,2,349,1
0.54774493655,1.03320894578,0.228426187424,0.218813106926,0.381,0.45,1,1,2,350,1
0.409759858706,0.243673389949,0.287674434655,1.03955036996,0.353,0.45,2,3,-1,351,1
1.09547672908,0.364646274772,0.211600417712,0.197068617712,0.392,0.45,0,0,2,352,1
0.185424676462,0.238716965733,1.05534728584,0.296237057924,0.314,0.45,2,2,2,353,1
0.485240709373,1.06412653083,0.21163142752,0.300590952667,0.371,0.45,1,1,2,354,1
1.10142034409,0.349794872788,0.174712068088,0.321948545286,0.479,0.45,0,0,1,355,1
0.495267865111,0.34188979362,0.29748692449,1.05315751951,0.46,0.45,3,3,1,356,1
1.02278461139,0.461318749998,0.158681981912,0.253394023804,0.472,0.45,0,0,1,357,1
0.561448145719,1.07554374687,0.357585520115,0.333325327835,0.516,0.45,1,1,1,358,1
0.317113336425,0.355203681078,0.436666779146,1.02499524707,0.436,0.45,3,3,2,359,1
0.360953533436,0.44343915018,1.13600073247,0.341601665614,0.444,0.45,2,2,2,360,1
0.637601490144,0.434257095903,0.477014388746,1.10546243785,0.444,0.45,3,3,2,361,1
0.577018675895,1.0057893124,0.236366243909,0.363851757134,0.48,0.45,1,1,1,362,1
0.541471386462,0.455692646487,1.07988223308,0.446681244672,0.604,0.45,2,2,1,363,1
0.805207503891,1.15275126737,0.160022864931,0.462522274699,0.62,0.45,0,1,-1,364,1
0.114863975195,1.02497497554,0.560975339471,0.396062695227,0.521,0.45,1,1,1,365,1
1.0692256377,0.269022293422,0.158031982165,0.4122598578,0.4,0.45,0,0,2,366,1
0.134063095798,0.152772642888,1.09190524869,0.32538492239,0.313,0.45,2,2,2,367,1
1.00830343098,0.534762494123,0.165612022581,0.288632997207,0.408,0.45,1,0,-1,368,1
0.23134443772,0.239675388281,0.853147418496,1.00007946875,0.406,0.45,3,3,2,369,1
1.01180730481,0.306186033431,0.156370374443,0.28954021404,0.327,0.45,0,0,2,370,1
0.18266776911,0.166720148079,0.531805502386,1.08449128406,0.442,0.45,3,3,2,371,1
0.123409330778,0.134862180378,1.05622381602,0.349827054108,0.442,0.45,2,2,2,372,1
0.143556944313,0.288124673712,0.420884991227,1.0653400256,0.409,0.45,3,3,2,373,1
1.1150040534,0.465580341905,0.182278375157,0.297870243712,0.419,0.45,0,0,2,374,1
0.641468400115,1.04913335684,0.289481233716,0.287405181457,0.547,0.45,1,1,1,375,1
0.369389663695,0.47574654605,0.352478884393,0.288293425225,0.7,0.45,2,-1,0,377,1
0.422186465275,0.400898228324,1.00661472468,0.295708916211,0.284,0.45,0,2,-1,377,1
0.298008710958,0.111893309389,0.518705904648,1.01583363491,0.311,0.45,2,3,-1,378,1
0.627408809165,1.03353417344,0.156637275943,0.316470826114,0.352,0.45,1,1,2,379,1
1.04906098332,0.350909088361,0.463248168045,0.289141736554,0.444,0.45,0,0,2,380,1
0.244175794203,0.137252454107,1.01653876808,0.425095671117,0.458,0.45,3,2,-1,381,1
0.104073581538,0.511157982983,1.00473095511,0.497455128542,0.582,0.45,2,2,1,382,1
0.379017567634,0.167510884713,0.455747231364,1.0407271578,0.524,0.45,3,3,1,383,1
0.397692318202,1.08245736766,0.255396053299,0.171268149074,0.493,0.45,1,1,1,384,1
0.247005536791,0.246835826219,0.282634670711,1.02790825811,0.348,0.45,3,3,2,385,1
0.341995484721,0.344704401713,1.01501043292,0.530988653043,0.466,0.45,2,2,1,386,1
1.01729760114,0.282899703622,0.295293047908,0.198769125492,0.362,0.45,0,0,2,387,1
0.229077904259,1.12228354613,0.519663398893,0.259396875333,0.449,0.45,1,1,2,388,1
0.277673334547,0.217388583139,1.06497545824,0.287177064324,0.325,0.45,2,2,2,389,1
1.1366735445,0.239903221098,0.254354814555,0.271956136346,0.364,0.45,1,0,-1,390,1
1.09305753267,0.290835177754,0.238432366984,0.231391496476,0.36,0.45,0,0,2,391,1
0.232420522587,0.240092660598,1.07375375947,0.208917167065,0.304,0.45,3,2,-1,392,1
1.01647780751,0.260225188051,0.439347485321,0.257007243451,0.403,0.45,0,0,2,393,1
0.0964928070544,0.277725918998,1.09314416127,0.236929010352,0.375,0.45,2,2,2,394,1
0.151201259299,0.0844168298096,0.294294392315,1.1525813205,0.382,0.45,3,3,2,395,1
0.164638885926,1.0041176378,0.526038812797,0.341999659618,0.39,0.45,1,1,2,396,1
0.439716178453,0.3888884346,1.02218160259,0.470985677837,0.447,0.45,3,2,-1,397,1
0.110022882507,0.237201690223,1.09699226128,0.347717913931,0.486,0.45,2,2,1,398,1
0.516595698887,1.04124313603,0.328153649263,0.287410038991,0.431,0.45,1,1,2,399,1
1.07435416451,0.412528880197,0.279762935871,0.280669131974,0.352,0.45,0,0,2,400,1
0.196289463854,0.203313571644,1.06024509768,0.351209051465,0.301,0.45,2,2,2,401,1
1.0430857278,0.307952077856,0.2779969058,0.432069592579,0.396,0.45,0,0,2,402,1
0.391442670747,1.05059595633,0.273367520458,0.340254831031,0.367,0.45,1,1,2,403,1
0.213362613205,0.305757517644,1.07420321662,0.436918840946,0.361,0.45,2,2,2,404,1
0.304048403899,0.204758395033,0.459165494965,1.00864756303,0.301,0.45,3,3,2,405,1
0.530568548425,1.02808943136,0.325597435568,0.259631778885,0.366,0.45,1,1,2,406,1
0.2899551119,0.184690875209,0.331353726536,1.1065255086,0.367,0.45,3,3,2,407,1
1.00314886292,0.354182301577,0.237694692824,0.30588220044,0.353,0.45,0,0,2,408,1
0.292582139085,0.270604783517,0.639719212085,1.01715078639,0.397,0.45,3,3,2,409,1
1.0245257625,0.264790901382,0.126261163125,0.190783578245,0.373,0.45,0,0,2,410,1
0.237488094055,0.213993321813,1.05663543183,0.290985802174,0.33,0.45,2,2,2,411,1
0.328715547718,1.06013280472,0.191067300842,0.265097218219,0.327,0.45,1,1,2,412,1
1.07822046928,0.237147031781,0.178770321053,0.43951253922,0.367,0.45,0,0,2,413,1
0.141131541276,1.05540484931,0.202811341043,0.466599721774,0.382,0.45,1,1,2,414,1
0.103979407482,0.142789892608,1.07536497133,0.454655507541,0.359,0.45,2,2,2,415,1
0.0988690963985,0.0855150097429,0.39412440716,1.07250734714,0.357,0.45,3,3,2,416,1
0.283677078175,1.03805904053,0.27799664075,0.342692203866,0.373,0.45,1,1,2,417,1
0.183561113064,0.210173765927,0.639693630596,1.06015859905,0.385,0.45,3,3,2,418,1
0.138652766602,0.276577567425,1.01751100963,0.776158312558,0.477,0.45,2,2,1,419,1
1.09052523483,0.225113918992,0.304073722026,0.217612006727,0.452,0.45,0,0,1,420,1
0.134501858285,0.271100613974,0.2645065769,0.480849028862,0.7,0.45,3,-1,0,422,1
0.159948165438,0.211340278804,0.19442689199,1.05496939753,0.109,0.45,1,3,-1,422,1
1.06621757212,0.552527223946,0.0981037595312,0.255047822064,0.394,0.45,0,0,2,423,1
0.110733351765,0.222600274628,1.06199855892,0.351333770103,0.308,0.45,2,2,2,424,1
1.01282986592,0.945132567768,0.364509528127,0.49872415749,0.523,0.45,0,0,1,425,1
0.318583635846,1.06326461059,0.549341400361,0.342986701878,0.571,0.45,1,1,1,426,1
0.128919116894,0.12965016854,1.01334723222,0.26800418619,0.502,0.45,2,2,1,427,1
0.540922941124,0.359444696355,0.539349747789,1.01481817782,0.437,0.45,3,3,2,428,1
1.01056120967,0.572500651596,0.2531604515,0.262848222706,0.406,0.45,0,0,2,429,1
0.390709031735,0.518402324163,0.505015124425,1.00856935847,0.439,0.45,3,3,2,430,1
0.280909503497,0.359692580073,1.00038537006,0.380455167275,0.452,0.45,2,2,1,431,1
0.52057681259,1.08642777821,0.187567684687,0.225284963589,0.441,0.45,1,1,2,432,1
0.41849837226,0.370475054829,0.227165540155,1.00733295369,0.468,0.45,3,3,1,433,1
0.493837990741,0.192271342381,0.247176732354,0.516703119733,0.7,0.45,1,-1,0,435,2
1.06669641043,0.524308496358,0.14737872871,0.790688587163,0.502,0.45,0,0,1,435,2
0.473751473594,0.114792489633,0.258976212361,1.09698772873,0.37,0.45,3,3,2,436,2
0.477712847176,0.271542992532,1.03068239909,0.536756068386,0.324,0.45,2,2,2,437,2
1.03824512762,0.314436064256,0.219341816063,0.306402679559,0.306,0.45,0,0,2,438,2
0.348615710073,0.216100823098,0.276616726154,1.00076082532,0.298,0.45,2,3,-1,439,2
0.367650460375,0.0873114668071,0.689070370104,1.02452812772,0.365,0.45,3,3,2,440,2
0.718372039341,1.02166449638,0.258421526764,0.494511596524,0.457,0.45,1,1,1,441,2
0.356126695554,0.249073664932,0.27411416159,1.14948043479,0.373,0.45,3,3,2,442,2
1.05204116675,0.463701466615,0.363449959088,0.27446447038,0.359,0.45,0,0,2,443,2
0.365860285307,1.11846513768,0.249147251216,0.357288893006,0.375,0.45,1,1,2,444,2
0.353473353626,0.206878721453,1.07444090449,0.472973758123,0.348,0.45,2,2,2,445,2
1.05130700874,0.312248790329,0.243933363968,0.287115968583,0.301,0.45,1,0,-1,446,2
0.296745571206,0.256874690353,1.02125392765,0.376363725074,0.346,0.45,2,2,2,447,2
0.425342856527,0.151692820917,0.502986707841,1.02008943925,0.381,0.45,3,3,2,448,2
1.04346976835,0.85767362318,0.158010140509,0.326754005195,0.421,0.45,0,0,2,449,2
0.283355640161,0.231144492548,0.488874651928,1.21747744738,0.398,0.45,3,3,2,450,2
0.290086115424,0.346324738171,1.02697893086,0.852149517887,0.468,0.45,2,2,1,451,2
1.05186885735,0.251336493598,0.205231949777,0.285602743585,0.433,0.45,0,0,2,452,2
0.654917899749,1.12230196683,0.18508148788,0.307263055899,0.399,0.45,1,1,2,453,2
1.09810498806,0.233071634466,0.289569726383,0.33912246953,0.386,0.45,0,0,2,454,2
0.309334888915,0.299527881827,1.08999002341,0.330304825165,0.366,0.45,2,2,2,455,2
0.5854845355,1.04530953997,0.46998583896,0.32124571446,0.405,0.45,1,1,2,456,2
0.354408703277,0.479665296583,0.266909237965,1.00397752138,0.377,0.45,3,3,2,457,2
0.641321678781,1.03090560078,0.34595293079,0.380698124192,0.394,0.45,1,1,2,458,2
0.362057813406,0.396653880143,0.276247841949,1.00524952568,0.336,0.45,3,3,2,459,2
0.303850626858,0.134729755304,1.00033715887,0.442672329919,0.381,0.45,2,2,2,460,2
1.04895684546,0.377898080198,0.374516806084,0.349609349114,0.365,0.45,0,0,2,461,2
0.42054996621,0.187699643993,0.631674106718,1.07714373865,0.355,0.45,3,3,2,462,2
1.05363772226,0.595858098147,0.187070548267,0.345076076384,0.414,0.45,0,0,2,463,2
0.252491529777,0.170986116154,1.09993905053,0.362356821259,0.316,0.45,2,2,2,464,2
0.493197694843,0.487364256657,0.236551349035,1.051159881,0.36,0.45,3,3,2,465,2
0.304908198697,1.11024869262,0.168594641332,0.234429378143,0.334,0.45,1,1,2,466,2
0.253694520243,0.231145817859,1.02188955481,0.913081075728,0.4,0.45,2,2,2,467,2
0.369064903206,1.08072591873,0.185928130519,0.222732578127,0.427,0.45,1,1,2,468,2
1.1744992764,0.234667090562,0.242261650009,0.268050875818,0.39,0.45,0,0,2,469,2
0.517229945751,1.06327152087,0.619425852695,0.330268564953,0.445,0.45,1,1,2,470,2
1.17144632233,0.852613439609,0.141698360437,0.25186613121,0.464,0.45,0,0,1,471,2
0.0890676972326,0.141408354198,0.483392632493,1.00694375003,0.407,0.45,3,3,2,472,2
0.123112762218,0.538716969488,1.0323176675,0.584325022755,0.427,0.45,2,2,2,473,2
0.126880937868,0.39571432262,0.209914383301,1.14809324364,0.425,0.45,3,3,2,474,2
1.04651714537,0.377483977726,0.101158782621,0.315223462249,0.414,0.45,0,0,2,475,2
0.427580099451,0.384065136259,1.02730659153,0.364618987876,0.419,0.45,2,2,2,476,2
0.613911173383,1.00397593179,0.251119613434,0.357895770718,0.419,0.45,1,1,2,477,2
0.427836383243,0.337339657012,0.957885608042,1.07011936317,0.443,0.45,3,3,2,478,2
0.514523428854,1.04341148687,0.264780207089,0.33950973216,0.462,0.45,1,1,1,479,2
0.369896828937,0.334093202331,1.10563860199,0.393847354189,0.402,0.45,2,2,2,480,2
1.04776245416,0.428737468781,0.178039260603,0.297654371404,0.398,0.45,0,0,2,481,2
0.515512864002,1.06188741265,0.224806508328,0.266289335295,0.392,0.45,1,1,2,482,2
1.04107412109,0.256724794113,0.229811370142,0.31242693952,0.411,0.45,0,0,2,483,2
0.331622406367,0.254377469331,0.366291407961,1.08428626826,0.355,0.45,3,3,2,484,2
0.419617719852,0.187331565065,1.05346525117,0.374851671973,0.39,0.45,2,2,2,485,2
1.06276003071,0.439575930395,0.129024542632,0.324561255006,0.359,0.45,0,0,2,486,2
0.268502833082,0.308228882489,1.00479766064,0.370970775314,0.339,0.45,2,2,2,487,2
0.299497925314,0.248694286347,0.344928841912,1.09485970235,0.38,0.45,3,3,2,488,2
0.624412586886,1.06317946655,0.219996196164,0.32126974632,0.404,0.45,1,1,2,489,2
0.324762652149,0.126534535802,0.287050043561,1.09152278056,0.389,0.45,3,3,2,490,2
1.04281180367,0.262594502065,0.154029737201,0.311199017109,0.401,0.45,0,0,2,491,2
0.298673630785,1.08232125257,0.151796711434,0.337425469205,0.404,0.45,1,1,2,492,2
0.241848395039,0.328674562712,1.09200453193,0.413635034131,0.359,0.45,2,2,2,493,2
0.460430311548,1.03053362957,0.0990876883828,0.37364694659,0.368,0.45,1,1,2,494,2
0.358294182445,0.270687099043,0.20794980958,1.03773544267,0.305,0.45,2,3,-1,495,2
1.0069684114,0.209862781671,0.0952700911266,0.239205960047,0.356,0.45,0,0,2,496,2
0.333079147024,0.317577691388,0.428679032095,1.08804709209,0.342,0.45,3,3,2,497,2
0.476888358648,0.298416931135,1.06382793845,0.362542905988,0.448,0.45,2,2,2,498,2
0.569122873546,0.246008791525,0.627876857158,1.15281459061,0.429,0.45,3,3,2,499,2
1.0358608666,0.332721723892,0.14067733786,0.278979329667,0.37,0.45,0,0,2,500,2
0.399241777764,0.266159204501,1.05596990848,0.390600074332,0.364,0.45,1,2,-1,501,2
0.235812434622,0.460950176945,1.09835272422,0.271205419801,0.375,0.45,3,2,-1,502,2
0.373867787703,1.04733183763,0.16168501688,0.269150424422,0.434,0.45,1,1,2,503,2
1.06517141514,0.281141090735,0.188466945664,0.362502884703,0.424,0.45,0,0,2,504,2
0.238025998809,0.25262422864,1.06278518564,0.34929003977,0.34,0.45,2,2,2,505,2
0.421546660318,1.04177551125,0.133388509222,0.464693951144,0.435,0.45,1,1,2,506,2
1.03121683756,0.250874302237,0.142257690137,0.334843850913,0.371,0.45,0,0,2,507,2
0.176773100548,0.298826557908,1.00611818055,0.3147086861,0.308,0.45,2,2,2,508,2
0.213637461185,0.328917425131,0.378003756064,1.07819361097,0.307,0.45,3,3,2,509,2
0.33182895808,1.07760053116,0.38442625298,0.33053041479,0.31,0.45,2,1,-1,510,2
1.11113555058,0.284641370576,0.205722105952,0.325127681944,0.406,0.45,0,0,2,511,2
0.143591142216,0.275607461116,1.0291707955,0.362536117502,0.342,0.45,3,2,-1,512,2
0.170262464021,1.04361118096,0.81997239055,0.342976589661,0.476,0.45,1,1,1,513,2
0.185900519021,0.292160843467,0.145097865307,1.04356148842,0.378,0.45,3,3,2,514,2
1.09767849115,0.336378210997,0.124707063591,0.21054755789,0.363,0.45,0,0,2,515,2
0.150072467501,1.02663446839,0.186989633371,0.364635656978,0.51,0.45,1,1,1,516,2
0.0977207386756,0.114407164353,1.0782970458,0.335132118084,0.474,0.45,2,2,1,517,2
1.08102497862,0.292818857752,0.170786392648,0.287383599461,0.405,0.45,1,0,-1,518,2
1.04595364992,0.19174152555,0.108615174975,0.310186192516,0.435,0.45,0,0,2,519,2
0.102444563854,0.262817808432,1.08504846589,0.424156769274,0.342,0.45,2,2,2,520,2
0.15601038388,0.151796029387,0.472265849115,1.11247100843,0.369,0.45,3,3,2,521,2
1.01164045001,0.384852491806,0.238091079329,0.291007652536,0.381,0.45,0,0,2,522,2
0.191943452117,0.289813527763,0.423534033395,1.08961824704,0.372,0.45,3,3,2,523,2
0.26036035427,0.413739027711,1.06448123817,0.476367940992,0.427,0.45,2,2,2,524,2
1.11980197081,0.480818088989,0.148952760909,0.353235032854,0.463,0.45,0,0,1,525,2
0.278850873548,1.01115120245,0.287766433294,0.387999578935,0.451,0.45,1,1,1,526,2
0.245743376106,0.376974866911,1.01810501936,0.339140574652,0.42,0.45,2,2,2,527,2
0.511301894566,1.02371226708,0.149639100904,0.275111250755,0.389,0.45,1,1,2,528,2
0.317148651047,0.387202455278,0.226418328431,1.07615517054,0.361,0.45,3,3,2,529,2
1.05732609318,0.445455159826,0.134831155442,0.232959720736,0.275,0.45,1,0,-1,530,2
0.265085975012,1.01223519084,0.257660004794,0.32613626366,0.289,0.45,0,1,-1,531,2
0.2746698797,0.135452905723,0.492504902488,1.13788788885,0.404,0.45,3,3,2,532,2
0.382826325753,0.361044026571,0.375455308078,1.01743775099,0.363,0.45,2,3,-1,533,2
1.01786207811,0.38098362223,0.0975671745819,0.207622473535,0.526,0.45,0,0,1,534,2
0.0987540350593,0.401500320266,1.12340745731,0.254480021853,0.443,0.45,2,2,2,535,2
0.0802918575012,0.093407321272,0.871536183051,1.09774316619,0.497,0.45,3,3,1,536,2
1.02985173834,0.284530760476,0.105686875595,0.207875444063,0.489,0.45,0,0,1,537,2
0.0817016155061,1.04241570772,0.15254044992,0.378583674519,0.541,0.45,1,1,1,538,2
0.0885327424162,0.0680802747372,1.03271870518,0.392991484132,0.484,0.45,2,2,1,539,2
0.114843841671,1.00998575774,0.144027992358,0.285965931275,0.436,0.45,1,1,2,540,2
0.0884284484731,0.160793547246,0.128874521987,1.10654537001,0.347,0.45,3,3,2,541,2
0.197433354519,1.07750581951,0.128128510888,0.240869562274,0.443,0.45,1,1,2,542,2
0.222428600172,0.374354859646,0.136479019294,1.04275345036,0.388,0.45,3,3,2,543,2
1.00071272693,0.390284223877,0.199826633542,0.298254536125,0.37,0.45,0,0,2,544,2
0.348020642503,0.326921628143,1.05857008235,0.304292342594,0.315,0.45,2,2,2,545,2
0.466114307968,0.205548018632,0.447931095783,1.00025287782,0.327,0.45,3,3,2,546,2
0.284282608472,0.2150665378,1.00475994821,0.400561666967,0.39,0.45,2,2,2,547,2
1.07024048757,0.420065575872,0.224401750118,0.356290484332,0.379,0.45,0,0,2,548,2
0.364425608099,1.19296907336,0.533166485828,0.410328671832,0.343,0.45,1,1,2,549,2
1.01849908904,0.34896737667,0.610026173216,0.334540316485,0.44,0.45,0,0,2,550,2
0.187953304073,0.163062746332,1.04653597255,0.792351210066,0.402,0.45,3,2,-1,551,2
1.14412265498,0.356696160033,0.191738098804,0.249046437464,0.379,0.45,1,0,-1,552,2
0.0667277423024,0.232381207474,1.04646737223,0.342150650307,0.333,0.45,2,2,2,553,2
0.166963800405,1.06518400602,0.269434494719,0.233700687277,0.348,0.45,1,1,2,554,2
1.06186796851,0.372305513855,0.233412857717,0.209210664516,0.358,0.45,0,0,2,555,2
0.282997234242,0.382105047026,0.593729900533,1.00584823326,0.357,0.45,3,3,2,556,2
0.193318239704,0.385234138481,1.08019961297,0.3360017627,0.417,0.45,2,2,2,557,2
0.238158868505,0.180669481176,0.305057288162,1.04004605774,0.41,0.45,3,3,2,558,2
1.04518207587,0.324251850043,0.23125028713,0.336014178072,0.428,0.45,0,0,2,559,2
0.234540571568,0.39252171114,1.03099075507,0.391169454042,0.363,0.45,2,2,2,560,2
0.75729668719,0.486641239742,0.151499825305,0.338653572008,0.7,0.45,0,-1,0,562,2
1.06148000963,0.408029630787,0.139420277307,0.327867626703,0.0390000000003,0.45,1,0,-1,562,2
0.144767535156,0.492508463404,1.02485105382,0.535654004812,0.362,0.45,2,2,2,563,2
1.05015382749,0.383694623879,0.107362419104,0.285548704792,0.383,0.45,1,0,-1,564,2
0.17040427414,0.365475261055,0.227259700077,1.06286462138,0.405,0.45,3,3,2,565,2
0.177413831018,1.02091063343,0.197009631288,0.31308625474,0.381,0.45,1,1,2,566,2
1.02161882712,0.268908307932,0.122055276757,0.295980077312,0.348,0.45,0,0,2,567,2
0.173834562207,0.419659628195,1.02090926046,0.411581982883,0.317,0.45,2,2,2,568,2
0.281952597415,0.434771958609,0.214540163518,1.1147221926,0.395,0.45,3,3,2,569,2
1.09494093661,0.453828886541,0.152654258371,0.221326110731,0.429,0.45,0,0,2,570,2
0.255564281833,0.356036012476,0.255814635837,1.06666931393,0.377,0.45,3,3,2,571,2
0.330533848386,0.36930517929,1.03326832009,0.386628973549,0.414,0.45,2,2,2,572,2
0.419710401553,1.00944913618,0.481530926592,0.349213203285,0.384,0.45,1,1,2,573,2
0.321741412853,0.343110666582,1.02911337684,0.866209993981,0.428,0.45,2,2,2,574,2
1.02112204923,0.39601167909,0.176782512569,0.229216447627,0.39,0.45,0,0,2,575,2
0.537989684573,1.00083547555,0.141912799114,0.230564999439,0.537,0.45,1,1,1,576,2
0.136251473175,0.244249989839,0.815948905152,1.01128499481,0.47,0.45,3,3,1,577,2
0.152383499978,1.10298871349,0.147902820054,0.293288324906,0.456,0.45,1,1,1,578,2
0.253107798953,0.471512526519,1.02258731508,0.322003616373,0.354,0.45,2,2,2,579,2
0.22486449125,0.436987669377,0.587956983157,1.01938158929,0.42,0.45,3,3,2,580,2
1.06367056858,0.437990969192,0.211670608023,0.332675735579,0.384,0.45,0,0,2,581,2
0.19746292512,0.392314739169,0.288659575959,1.08243816842,0.343,0.45,3,3,2,582,2
0.240045233488,0.386224726806,1.05241028466,0.409033309733,0.358,0.45,2,2,2,583,2
1.13679182283,0.318084374102,0.186549017787,0.335424334258,0.377,0.45,0,0,2,584,2
0.230090844387,0.322642049411,1.02108883351,0.393700501481,0.341,0.45,2,2,2,585,2
0.171219395703,1.03713449857,0.196323858985,0.325270045397,0.399,0.45,1,1,2,586,2
0.0877699388631,0.307193922671,0.325023588099,1.04399896674,0.352,0.45,3,3,2,587,2
0.155482297028,1.04485414131,0.17709276406,0.293493598352,0.37,0.45,1,1,2,588,2
1.05124027972,0.451351177407,0.180412372168,0.362376680755,0.372,0.45,0,0,2,589,2
0.324018871857,1.02646187512,0.235409030225,0.380184832624,0.576,0.45,1,1,1,590,2
1.01092811229,0.294282668866,0.095356572724,0.30626516369,0.462,0.45,0,0,1,591,2
0.286179778112,0.273225617818,0.396917045457,1.08935114471,0.406,0.45,3,3,2,592,2
0.158898142574,0.209147746981,1.02142882577,0.392099841004,0.468,0.45,2,2,1,593,2
1.02273956965,0.210076212961,0.171133673111,0.271880109853,0.454,0.45,0,0,1,594,2
0.283659913418,0.362101273791,1.09411973364,0.461806712014,0.394,0.45,2,2,2,595,2
0.40244342401,0.246830050007,0.177441764585,1.09957507332,0.451,0.45,3,3,1,596,2
0.0992553426829,0.840570265974,0.205676494023,0.387144790679,0.7,0.45,1,-1,0,598,2
0.0775340334866,0.37638702985,1.1043996549,0.395559123301,0.45,0.45,2,2,1,598,2
0.120228428659,1.00731018297,0.148285277464,0.366229083928,0.423,0.45,1,1,2,599,2
0.25381902579,0.390180824747,0.467593763385,1.08276557118,0.421,0.45,3,3,2,600,2
1.04846885735,0.579014347088,0.32448939216,0.40539611465,0.337,0.45,0,0,2,601,2
0.39334563735,0.366029125561,1.00837174834,0.47568486015,0.356,0.45,1,2,-1,602,2
1.12095943225,0.592755529592,0.132746476354,0.300609571672,0.442,0.45,0,0,2,603,2
0.41304434306,0.320307971774,0.32094797188,1.05858433522,0.352,0.45,3,3,2,604,2
0.200932044468,0.646421335625,1.0090416512,0.471532426493,0.431,0.45,2,2,2,605,2
1.0867627881,0.412027770664,0.202207648959,0.305870586996,0.397,0.45,0,0,2,606,2
0.140087265775,0.388123204174,1.05691612211,0.427367566999,0.388,0.45,2,2,2,607,2
0.209033881843,0.33504920579,0.497763462382,1.14833878809,0.349,0.45,3,3,2,608,2
1.06059327438,0.558477203218,0.348941937515,0.354189272281,0.33,0.45,1,0,-1,609,2
0.272541389123,0.460234333068,1.07858866689,0.425883559489,0.354,0.45,2,2,2,610,2
0.397418663172,1.1942675045,0.289840294555,0.349914297783,0.367,0.45,1,1,2,611,2
0.405357877352,0.333019893123,0.287701513933,1.0334294298,0.351,0.45,3,3,2,612,2
1.00727347222,0.30295407488,0.0927225924354,0.235631463383,0.384,0.45,0,0,2,613,2
0.482912521302,1.00397573858,0.265172466966,0.293352394073,0.425,0.45,1,1,2,614,2
0.348542311888,0.456739993404,1.01227527658,0.344242113401,0.379,0.45,2,2,2,615,2
0.512305696934,0.381031659033,0.392323463159,1.02702128428,0.347,0.45,3,3,2,616,2
1.08553663595,0.58081488026,0.163277435888,0.319988764893,0.389,0.45,0,0,2,617,2
0.389635998988,0.39902717646,0.4137458687,1.02335511704,0.377,0.45,3,3,2,618,2
0.315001730966,0.33566049541,1.04333641209,0.309426193572,0.406,0.45,2,2,2,619,2
1.03646225601,0.313689451314,0.18646617406,0.26569695089,0.38,0.45,0,0,2,620,2
0.389478565468,1.0436970812,0.177832375826,0.231488874815,0.376,0.45,1,1,2,621,2
1.013808035,0.460515471906,0.261677125892,0.496088002187,0.434,0.45,0,0,2,622,2
0.266344402122,0.320721262388,1.05817696913,0.368183237528,0.394,0.45,2,2,2,623,2
0.283401149079,1.03784388503,0.168142304997,0.208004551792,0.388,0.45,1,1,2,624,2
0.206119254292,0.355500520073,0.181762036889,1.12006771732,0.343,0.45,3,3,2,625,2
0.226369538207,1.03393471056,0.181974100547,0.196146390099,0.348,0.45,1,1,2,626,2
1.0182400871,0.312717351476,0.147415745378,0.267272501035,0.299,0.45,0,0,2,627,2
0.208612308972,0.420359038825,1.04640131767,0.35879783428,0.284,0.45,2,2,2,628,2
0.462267440871,0.282647769649,0.344300413335,1.07910025205,0.31,0.45,3,3,2,629,2
0.47788103669,1.06954098233,0.208066024275,0.238525580383,0.35,0.45,0,1,-1,630,2
0.197855764432,0.277117314941,0.511122043282,1.00226770794,0.392,0.45,3,3,2,631,2
0.213258634455,0.450202613868,1.04223103867,0.394627913754,0.412,0.45,2,2,2,632,2
1.03498799285,0.43662297144,0.115391722059,0.276997094294,0.371,0.45,0,0,2,633,2
0.304246530958,1.09111084877,0.230511860827,0.287184098093,0.373,0.45,1,1,2,634,2
0.127548767391,0.385867263987,1.02708676032,0.439890983418,0.398,0.45,2,2,2,635,2
0.363983233659,1.07836015889,0.0972278498972,0.225424092556,0.396,0.45,1,1,2,636,2
0.142399555068,0.309695456598,1.01046079998,0.26694988328,0.369,0.45,3,2,-1,637,2
0.140362648121,1.09344255535,0.347390280501,0.23690199054,0.406,0.45,1,1,2,638,2
1.08118178054,0.476954654696,0.205903504371,0.322349830674,0.389,0.45,0,0,2,639,2
0.0918243157026,0.417637356372,1.03841007358,0.399501522446,0.331,0.45,2,2,2,640,2
0.0950118606125,0.531445150088,0.231625391494,1.07685255975,0.36,0.45,3,3,2,641,2
0.336521483454,0.406749897937,0.183671790606,0.27805826682,0.7,0.45,0,-1,0,643,2
1.1175898212,0.408407732739,0.223336029788,0.282094302653,0.139,0.45,3,0,-1,643,2
0.148528465416,0.370618649204,1.03257474041,0.412969030656,0.438,0.45,2,2,2,644,2
1.08297330676,0.351673948006,0.225544750367,0.256376885543,0.354,0.45,0,0,2,645,2
0.303011397947,1.04204871217,0.23950520348,0.276300358684,0.325,0.45,1,1,2,646,2
0.562387242527,0.540691845039,1.18268204162,0.550500862429,0.44,0.45,2,2,2,647,2
1.15423791288,0.326474122041,0.10469926886,0.182781956769,0.445,0.45,1,0,-1,648,2
0.129293150932,0.464443831449,0.121140386946,1.0008232696,0.406,0.45,3,3,2,649,2
0.190873873819,1.12277664343,0.18584227036,0.246465691928,0.432,0.45,1,1,2,650,2
0.425351641419,1.01540682492,0.135067794556,0.170339566711,0.7,0.45,1,-1,0,652,3
0.425351641419,1.01540682492,0.135067794556,0.170339566711,0.00600000000036,0.45,2,1,-1,652,3
1.14120442182,0.554035156734,0.215470582124,0.298476634333,0.168,0.45,0,0,2,653,3
0.376661910027,0.287696867318,1.03420538009,0.453792417581,0.315,0.45,3,2,-1,654,3
0.406356863983,0.275232949955,1.05742293129,0.289161328374,0.354,0.45,2,2,2,655,3
0.258327180794,0.144796828526,0.551245790164,1.03092282851,0.395,0.45,3,3,2,656,3
1.05596615584,0.491932566961,0.286317407497,0.268797550714,0.45,0.45,0,0,1,657,3
0.350832496467,0.278241519408,1.02805621095,0.393325130675,0.354,0.45,2,2,2,658,3
0.555070604419,1.03169008012,0.271371801542,0.307723871161,0.373,0.45,1,1,2,659,3
1.0195709506,0.264291069713,0.200254060625,0.202770583412,0.392,0.45,0,0,2,660,3
0.453903119598,1.0229786032,0.192003808622,0.158500018893,0.357,0.45,1,1,2,661,3
0.318480917052,0.0961680906516,0.828732689526,1.04925620541,0.387,0.45,3,3,2,662,3
0.542512485791,1.13250390534,0.306578727882,0.196720660029,0.325,0.45,1,1,2,663,3
1.07751278483,0.536758905904,0.186171948961,0.229688215216,0.405,0.45,0,0,2,664,3
0.357529710942,0.215172421494,1.06088820109,0.309110359829,0.348,0.45,2,2,2,665,3
0.302164888583,0.107949732809,0.323146228089,1.05295859231,0.371,0.45,3,3,2,666,3
1.09323133336,0.247858047256,0.209271731111,0.135547148659,0.339,0.45,0,0,2,667,3
0.328538354183,0.155366409435,0.301081190699,1.07535113986,0.332,0.45,3,3,2,668,3
0.338421001587,0.178988293148,1.03242634006,0.273184195216,0.349,0.45,2,2,2,669,3
1.0519206408,0.23551395384,0.179322348765,0.199277100645,0.323,0.45,1,0,-1,670,3
0.26613563276,0.187435965679,1.01824897142,0.347232150446,0.386,0.45,2,2,2,671,3
1.01360363827,0.453465613437,0.0841310298668,0.197557370175,0.384,0.45,0,0,2,672,3
0.383678616096,1.00867613285,0.148768857937,0.245005780409,0.351,0.45,1,1,2,673,3
0.359178371106,0.0762220390405,0.847084799253,1.05916051251,0.373,0.45,3,3,2,674,3
1.04268280305,0.206213721001,0.04478362486,0.178185481263,0.296,0.45,1,0,-1,675,3
0.350101834308,0.052683873482,1.05548852878,0.299564809492,0.336,0.45,3,2,-1,676,3
0.417853488907,0.218547873337,1.0972058431,0.365132470027,0.468,0.45,2,2,1,677,3
1.05297039938,0.160445737009,0.116338501085,0.207111750483,0.394,0.45,0,0,2,678,3
0.389042936967,0.280690742424,1.05178824809,0.351657979905,0.387,0.45,2,2,2,679,3
0.418377317669,0.129742706895,0.255787863955,1.10369037657,0.352,0.45,3,3,2,680,3
1.05255803367,0.494904847131,0.154426744914,0.210277016024,0.409,0.45,0,0,2,681,3
0.163099973912,0.0955733195248,0.460530734441,1.0196559937,0.376,0.45,3,3,2,682,3
0.284320351978,1.02374368196,0.164080144548,0.18702798328,0.324,0.45,1,1,2,683,3
1.13294720298,0.186388646479,0.165447168,0.339900898094,0.336,0.45,0,0,2,684,3
0.161432141675,1.05962902384,0.215532375962,0.291191600442,0.504,0.45,1,1,1,685,3
0.239550759277,0.2148986396,1.05671208325,0.328001165603,0.449,0.45,2,2,2,686,3
0.492166932597,1.0658488933,0.132445620887,0.2681470298,0.45,0.45,1,1,1,687,3
0.279473024518,0.0936818543762,1.06063476576,0.319436641784,0.403,0.45,2,2,2,688,3
1.05839585791,0.199474350501,0.174994155566,0.220336914417,0.397,0.45,0,0,2,689,3
0.257413078105,0.115299006802,0.415179723276,1.07835736824,0.358,0.45,3,3,2,690,3
0.288603880608,0.440405634707,1.05962048783,0.339786518565,0.491,0.45,2,2,1,691,3
0.337051539058,0.258897136689,0.175300621455,1.03411313471,0.475,0.45,3,3,1,692,3
1.07924792861,0.294270015439,0.0547412193898,0.155774196571,0.409,0.45,0,0,2,693,3
0.473351712739,1.08203754206,0.122785448393,0.256596206986,0.446,0.45,1,1,2,694,3
1.02845998265,0.25325585053,0.188613006901,0.214903870788,0.407,0.45,0,0,2,695,3
0.251642087718,0.178240332634,1.06647223232,0.312614684362,0.303,0.45,2,2,2,696,3
0.648058253344,1.0411776121,0.207171728274,0.235954861044,0.421,0.45,1,1,2,697,3
0.397891276299,0.184196553881,0.151538530052,1.00268765417,0.393,0.45,3,3,2,698,3
0.401478083446,1.09247796009,0.116547687623,0.137007319606,0.365,0.45,1,1,2,699,3
0.130796106512,0.205729086946,1.01134042254,0.451180070616,0.398,0.45,2,2,2,700,3
1.06763153908,0.173218875132,0.200160471985,0.204316874331,0.372,0.45,0,0,2,701,3
0.146720611353,0.0882710055163,0.563568189578,1.08371270496,0.347,0.45,3,3,2,702,3
0.264237072337,0.126638445378,1.10062035873,0.320620070973,0.368,0.45,2,2,2,703,3
0.262734493883,0.332910921971,0.130496461211,1.13752974021,0.4,0.45,3,3,2,704,3
1.01415180143,0.25404093008,0.165025153922,0.182215501059,0.402,0.45,0,0,2,705,3
0.272408566756,0.152253912541,1.06636485671,0.32655170485,0.372,0.45,2,2,2,706,3
0.531479480487,1.14242259499,0.109135994738,0.191403584642,0.361,0.45,1,1,2,707,3
0.334679091333,0.307724271459,0.30517590644,1.08247049343,0.333,0.45,3,3,2,708,3
0.254495692808,1.04066384433,0.16342318265,0.27004789455,0.396,0.45,1,1,2,709,3
1.09420637927,0.140769637746,0.146064739555,0.281273319809,0.406,0.45,0,0,2,710,3
0.198825528247,1.01925178198,0.143430990937,0.21652558602,0.39,0.45,1,1,2,711,3
1.02370931193,0.196631140366,0.0989265290512,0.230325548879,0.423,0.45,0,0,2,712,3
0.29896804435,0.1971637783,1.02875781773,0.295729747283,0.392,0.45,2,2,2,713,3
0.397297491119,0.198717124587,0.216059497926,1.00919690053,0.339,0.45,3,3,2,714,3
1.02534070011,0.558820961931,0.113555499766,0.180832398145,0.4,0.45,0,0,2,715,3
0.213268398979,0.131246928819,0.257567873924,1.05270851633,0.331,0.45,3,3,2,716,3
0.310205869213,0.514226063465,1.00274188936,0.521586318994,0.396,0.45,2,2,2,717,3
0.165460439262,1.04572252883,0.0638059256508,0.169275078335,0.348,0.45,1,1,2,718,3
0.150030173822,0.178331813955,1.11627881647,0.339543094526,0.302,0.45,3,2,-1,719,3
0.358953244057,1.07606182977,0.220132611797,0.188185334512,0.459,0.45,1,1,1,720,3
0.279532397925,0.166259721282,1.00430804406,0.716201616908,0.451,0.45,2,2,1,721,3
1.03887915836,0.0773400787263,0.118109518325,0.125423305747,0.399,0.45,0,0,2,722,3
0.350574700555,1.09532068266,0.222977401443,0.239980139772,0.384,0.45,1,1,2,723,3
0.178398541946,0.0923262538232,0.846000908794,1.01536857669,0.389,0.45,3,3,2,724,3
0.411967725322,1.07870432127,0.14557360123,0.151442543981,0.363,0.45,2,1,-1,725,3
1.02071964832,0.239448695631,0.128389587167,0.198868517948,0.426,0.45,0,0,2,726,3
0.447585054667,0.284444041072,0.44018817831,1.01510630258,0.399,0.45,3,3,2,727,3
1.02097586366,0.368340203244,0.289862584487,0.249181927377,0.441,0.45,0,0,2,728,3
0.300806251478,0.256227355143,1.02132010621,0.325266712894,0.419,0.45,2,2,2,729,3
0.278345658354,0.0942399392995,0.277205270534,1.0324189386,0.427,0.45,3,3,2,730,3
0.471056225287,1.07956729491,0.123699070076,0.0943605235853,0.381,0.45,1,1,2,731,3
0.268632746687,0.139595318906,1.02403890581,0.382086893687,0.447,0.45,2,2,2,732,3
0.47387694179,1.02726704741,0.127115191135,0.173632307783,0.49,0.45,1,1,1,733,3
1.04650568577,0.11730345117,0.179295368816,0.254043795466,0.367,0.45,0,0,2,734,3
0.22524714863,1.13058631232,0.355423913569,0.214848976129,0.415,0.45,1,1,2,735,3
0.251003473046,0.0979843505772,1.02488925534,0.218058160352,0.339,0.45,2,2,2,736,3
0.193566119491,0.110311617066,0.264744655808,1.06166238906,0.336,0.45,3,3,2,737,3
1.02824925535,0.11922459947,0.259440755255,0.207555500787,0.416,0.45,0,0,2,738,3
0.268290970781,0.096146872595,0.22200372314,1.14382363977,0.39,0.45,3,3,2,739,3
0.134392016919,0.106340143038,1.00934177726,0.215100461193,0.411,0.45,2,2,2,740,3
0.180820394969,1.0078099348,0.18597809947,0.243613549666,0.426,0.45,0,1,-1,741,3
0.0974041822597,0.0499896108955,1.04601142257,0.4168862598,0.498,0.45,2,2,1,742,3
0.244478967126,1.00367005555,0.201013457501,0.28401346975,0.448,0.45,1,1,2,743,3
0.238989170562,0.150232044722,0.259104867866,1.19574644582,0.498,0.45,3,3,1,744,3
0.160292144399,1.05297624162,0.202417040055,0.251892626557,0.459,0.45,1,1,1,745,3
1.07163340518,0.164706418835,0.19977413421,0.311630237364,0.39,0.45,0,0,2,746,3
0.154453742682,1.17312227571,0.290902575996,0.170990351557,0.482,0.45,1,1,1,747,3
0.128652495448,0.124375369448,0.280035615753,1.18481632379,0.436,0.45,3,3,2,748,3
1.15819141218,0.256370916207,0.07039812197,0.103896649542,0.405,0.45,0,0,2,749,3
0.503123135497,0.331177386814,1.16887753262,0.279528226347,0.383,0.45,2,2,2,750,3
1.18356857433,0.250654784185,0.240173784159,0.16272692191,0.403,0.45,0,0,2,751,3
0.337505088728,0.181325195431,0.397045194138,1.11568805748,0.371,0.45,3,3,2,752,3
0.472523514497,0.156422098736,1.09356527143,0.186952026135,0.399,0.45,2,2,2,753,3
0.608025784278,1.08496169601,0.106529884659,0.101535660406,0.376,0.45,1,1,2,754,3
1.22817542994,0.219437975194,0.102361028915,0.115699445267,0.322,0.45,0,0,2,755,3
1.02061688038,0.193437728277,0.278346769596,0.189263254626,0.393,0.45,1,0,-1,756,3
0.261740727458,0.275078793666,1.1054475453,0.346070085727,0.513,0.45,2,2,1,757,3
0.30030196583,0.128272916434,0.396577666736,1.13037118768,0.441,0.45,3,3,2,758,3
1.10873749356,0.289021820252,0.387488342387,0.125822821314,0.393,0.45,1,0,-1,759,3
0.334294402481,0.15098169618,0.241092104347,1.11292136706,0.379,0.45,3,3,2,760,3
0.337883574384,0.228551988315,1.06763899667,0.136803031137,0.397,0.45,2,2,2,761,3
1.07510725528,0.295105175192,0.177090589469,0.117482458177,0.456,0.45,0,0,1,762,3
0.143042213047,0.148738315283,0.298910062915,1.04834580974,0.396,0.45,3,3,2,763,3
1.09151968886,0.276669121229,0.0942573182955,0.0869526445064,0.407,0.45,0,0,2,764,3
0.123505046802,0.173341563655,1.05475257193,0.438534868484,0.413,0.45,2,2,2,765,3
0.196942483956,1.16811745024,0.144804005154,0.129846331121,0.339,0.45,1,1,2,766,3
1.09623898684,0.306374985425,0.122079015074,0.359352602415,0.45,0.45,0,0,1,767,3
0.131388940202,1.19032837894,0.142109842543,0.244915558059,0.414,0.45,1,1,2,768,3
0.0993596402348,0.195808000591,1.11559174503,0.274625944746,0.411,0.45,2,2,2,769,3
0.121397326172,0.100427229412,0.140801862864,1.01540889408,0.344,0.45,3,3,2,770,3
0.275712898646,1.07312843342,0.130098385377,0.140629504063,0.343,0.45,1,1,2,771,3
1.14021878269,0.0426945755147,0.105021997604,0.259758531106,0.352,0.45,0,0,2,772,3
0.208920704884,0.0486723160889,1.09696985565,0.41687443189,0.346,0.45,2,2,2,773,3
0.246140831218,0.0801588930154,0.212068015978,1.04626961891,0.379,0.45,3,3,2,774,3
1.00082792961,0.169879347368,0.108934508435,0.136590220762,0.387,0.45,0,0,2,775,3
0.208720933416,0.110616712259,0.461534665452,1.0055334194,0.409,0.45,3,3,2,776,3
0.170661044701,0.0677458796477,1.10386755722,0.285816235478,0.452,0.45,2,2,1,777,3
1.01420926719,0.0292424955518,0.114952980139,0.244949070379,0.54,0.45,0,0,1,778,3
0.135074203087,1.07138270518,0.230898902877,0.26849918945,0.457,0.45,1,1,1,779,3
0.184133902054,0.410635262169,1.06137777869,0.423842626756,0.421,0.45,2,2,2,780,3
0.577471628197,1.06529797119,0.290859183554,0.216539367631,0.417,0.45,1,1,2,781,3
0.298223854952,0.0878075743194,0.373301477336,1.14815182523,0.403,0.45,3,3,2,782,3
0.343432874832,1.02496295807,0.234801098265,0.241194431565,0.389,0.45,1,1,2,783,3
1.0874707574,0.1965665449,0.251598775484,0.325801964127,0.329,0.45,0,0,2,784,3
0.292877530918,0.230286634663,1.03176426921,0.364829590469,0.381,0.45,3,2,-1,785,3
0.305196359269,0.175376395907,1.0702901348,0.252320902015,0.379,0.45,2,2,2,786,3
1.12404834112,0.128334721609,0.185152907548,0.170683200015,0.334,0.45,0,0,2,787,3
0.1766234841,0.226478881653,1.04512829392,0.422436449316,0.391,0.45,2,2,2,788,3
0.381139345101,0.123489946848,0.28126389143,1.0998825551,0.404,0.45,3,3,2,789,3
0.554300584956,1.03066206847,0.279960367826,0.149231915756,0.434,0.45,1,1,2,790,3
0.350008424932,0.0941630190762,0.147828734541,1.04349201336,0.414,0.45,3,3,2,791,3
1.01142505601,0.193495635436,0.109328020432,0.152436520181,0.362,0.45,0,0,2,792,3
0.102415755776,1.04527045491,0.354671318494,0.209888482403,0.364,0.45,1,1,2,793,3
0.212455604579,0.113412508886,1.00549876628,0.293272069266,0.353,0.45,2,2,2,794,3
0.370952949663,1.11670167672,0.18432027474,0.179659418227,0.389,0.45,1,1,2,795,3
1.06916960626,0.149683655151,0.207507655433,0.22729171102,0.395,0.45,0,0,2,796,3
0.187085467952,0.172296558408,0.515091350724,1.13982621997,0.359,0.45,3,3,2,797,3
0.337669398901,0.473289339243,1.03021870799,0.2885219738,0.366,0.45,2,2,2,798,3
1.07658116978,0.562264335059,0.155429552198,0.18817912601,0.397,0.45,0,0,2,799,3
0.298043126685,0.22225400726,1.10375625524,0.373359434921,0.385,0.45,2,2,2,800,3
0.381382565843,0.297553173346,0.206174014491,1.08434454631,0.401,0.45,3,3,2,801,3
1.11457590189,0.499764906391,0.0993463903995,0.135573264083,0.467,0.45,0,0,1,802,3
0.318362492708,1.09939946515,0.825125253494,0.321323903887,0.533,0.45,1,1,1,803,3
0.29246009689,0.165928155222,1.06792081343,0.294666687215,0.412,0.45,2,2,2,804,3
0.491376313397,1.07836478811,0.220703765248,0.152381164008,0.423,0.45,1,1,2,805,3
0.240606494973,0.281012888059,0.397638242506,1.01867435186,0.38,0.45,3,3,2,806,3
0.370475737688,1.05845658659,0.133114522906,0.215370302533,0.351,0.45,1,1,2,807,3
0.297988496508,0.214227220344,0.204672662043,1.0398537131,0.344,0.45,3,3,2,808,3
1.06600074632,0.423579707797,0.1356815109,0.198491410508,0.329,0.45,0,0,2,809,3
0.390725807281,0.222196778473,1.06739376824,0.626267155183,0.311,0.45,2,2,2,810,3
0.463148132344,0.144945895608,0.389174411658,1.01658710572,0.299,0.45,3,3,2,811,3
1.00959665557,0.218682800798,0.150974862981,0.122530446816,0.276,0.45,2,0,-1,812,3
1.00115158815,0.207717679444,0.205535926595,0.0704054070239,0.357,0.45,0,0,2,813,3
0.437019890506,1.02528868917,0.140483296563,0.180136910501,0.61,0.45,1,1,1,814,3
0.206638568648,0.216672588588,1.13737473894,0.270614408977,0.406,0.45,2,2,2,815,3
1.0333413425,0.241771361744,0.0747931410394,0.142196039702,0.388,0.45,1,0,-1,816,3
0.255052876465,1.22189586216,0.093947871997,0.311235780352,0.374,0.45,0,1,-1,817,3
1.05644627213,0.0551259831066,0.113981334479,0.219888641447,0.19,0.45,3,0,-1,818,3
0.658212383634,1.0118711407,0.0667214442154,0.195772336345,0.406,0.45,1,1,2,819,3
0.155166073237,0.0814802717243,0.104211650975,1.02930953536,0.383,0.45,2,3,-1,820,3
0.220762710122,0.150120693826,0.354735417484,1.03685737551,0.455,0.45,3,3,1,821,3
1.14929175639,0.380434748456,0.0777196621047,0.107545076626,0.434,0.45,0,0,2,822,3
0.289665209326,0.549798208217,1.0046196527,0.345356180747,0.434,0.45,2,2,2,823,3
1.00338115563,0.0941800240217,0.0502429963558,0.256712131747,0.365,0.45,0,0,2,824,3
0.275137234018,0.225987571923,1.03410528337,0.478750872021,0.35,0.45,3,2,-1,825,3
0.226378333214,0.210370194595,1.04255978193,0.386072936512,0.399,0.45,2,2,2,826,3
0.350514172051,1.07725382888,0.1354324622,0.261419618864,0.382,0.45,1,1,2,827,3
1.17890515221,0.710753811046,0.0420689029001,0.249232604265,0.352,0.45,0,0,2,828,3
0.288596681954,1.23265980692,0.264633054673,0.277938717579,0.479,0.45,1,1,1,829,3
0.197075989542,0.0621648229744,0.338190374801,1.05655932017,0.414,0.45,3,3,2,830,3
0.387785292015,1.11494201421,0.106194739627,0.0963564245051,0.38,0.45,1,1,2,831,3
0.208323410058,0.0874944383493,0.200716659983,1.02258924377,0.38,0.45,3,3,2,832,3
0.322193207129,0.157863972084,1.07576315843,0.26367851989,0.465,0.45,2,2,1,833,3
1.04032461789,0.13451949533,0.169055881418,0.151302475982,0.408,0.45,0,0,2,834,3
0.210795353254,0.238113810274,1.02235084399,0.232287909892,0.363,0.45,2,2,2,835,3
0.259579863578,0.251891044977,0.452783283467,1.08506195676,0.435,0.45,3,3,2,836,3
1.00387550624,0.511866713511,0.256859605932,0.334289062387,0.407,0.45,0,0,2,837,3
0.289011603684,1.03626647285,0.861678235048,0.343922089191,0.448,0.45,1,1,2,838,3
1.19498538624,0.160658580235,0.0699023387097,0.309210945131,0.462,0.45,0,0,1,839,3
0.448567938506,0.151759911757,0.150194687148,1.11970574185,0.403,0.45,3,3,2,840,3
0.571127365607,1.20920757524,0.14181147444,0.260066219569,0.375,0.45,1,1,2,841,3
0.322424586368,0.357280672506,1.04670429777,0.447628299251,0.432,0.45,2,2,2,842,3
0.389977748981,1.05577568386,0.0818962583489,0.194972219757,0.408,0.45,1,1,2,843,3
1.06000421373,0.119195661016,0.111642171175,0.327126375491,0.355,0.45,0,0,2,844,3
0.175212413632,0.118197141021,0.929202003413,1.14099608173,0.394,0.45,3,3,2,845,3
0.292738360087,0.104068968118,1.08849481416,0.400031911852,0.384,0.45,2,2,2,846,3
0.237020266938,0.198019321654,0.193763191269,1.06236951475,0.401,0.45,3,3,2,847,3
1.1339738028,0.200903359738,0.077874437203,0.160118014282,0.488,0.45,0,0,1,848,3
0.19262150366,0.121163773953,1.04367878183,0.299723552943,0.431,0.45,2,2,2,849,3
1.07844611722,0.0615113636682,0.0820991380819,0.186088248438,0.363,0.45,0,0,2,850,3
0.614996866189,1.02447319827,0.264331341728,0.29727042993,0.407,0.45,1,1,2,851,3
0.161062140147,1.05102213423,0.438922593992,0.399514689103,0.481,0.45,2,1,-1,852,3
0.162950071641,1.18983232909,0.041924456757,0.239160792341,0.408,0.45,1,1,2,853,3
0.13698075506,0.248401800152,1.00766291267,0.482301099039,0.365,0.45,3,2,-1,854,3
0.155196065245,1.10078783535,0.176822769791,0.252097343804,0.383,0.45,1,1,2,855,3
0.261113897733,1.01733004865,0.189440497769,0.510445664313,0.443,0.45,2,1,-1,856,3
0.257202511945,0.103178669483,0.122395827023,1.05437956576,0.435,0.45,3,3,2,857,3
1.09092949094,0.278729491009,0.0694402965295,0.116103234251,0.404,0.45,0,0,2,858,3
0.362928638502,0.140438707584,0.302838159539,1.0360318386,0.328,0.45,3,3,2,859,3
0.166025466592,0.0899908166856,1.00205859607,0.190971150736,0.341,0.45,2,2,2,860,3
1.09240370849,0.141519455259,0.101285294033,0.277458797441,0.405,0.45,0,0,2,861,3
0.395855834669,0.266656760657,1.08337398618,0.514370656907,0.494,0.45,2,2,1,862,3
0.331114993159,1.10219681684,0.158538573033,0.196032182037,0.447,0.45,1,1,2,863,3
0.185289234825,0.0679624341991,0.193730141821,1.10753654038,0.41,0.45,3,3,2,864,3
0.403575347128,1.16053644148,0.0506235787405,0.139548917833,0.372,0.45,1,1,2,865,3
1.03204721923,0.135761602813,0.0525840029899,0.170040954001,0.333,0.45,0,0,2,866,3
0.0595196997939,1.09179758534,0.065870900659,0.174395488915,0.507,0.45,1,1,1,867,3
1.09004265301,0.182076754743,0.22440911009,0.414700859693,0.484,0.45,0,0,1,868,4
0.35007472789,0.0579029982599,0.445647236932,1.02823462317,0.395,0.45,3,3,2,869,4
0.391460362795,1.06479806807,0.158464715723,0.261292050642,0.395,0.45,1,1,2,870,4
0.416864862908,0.101661653267,1.16594813085,0.300988961622,0.315,0.45,2,2,2,871,4
0.393015325824,1.1156365998,0.194574210443,0.232876705891,0.413,0.45,1,1,2,872,4
0.300919162403,0.101796937223,0.304912209978,1.06207628842,0.368,0.45,3,3,2,873,4
0.266057153928,0.255131493211,1.0540601792,0.563208305923,0.423,0.45,2,2,2,874,4
1.06946389105,0.217393990766,0.116083091496,0.135057967709,0.364,0.45,0,0,2,875,4
0.207613492034,0.0963988143861,1.1818500739,0.228151870091,0.322,0.45,2,2,2,876,4
0.243084700928,0.256728977248,0.984055900308,1.03952932133,0.367,0.45,3,3,2,877,4
1.04900073155,0.183715612266,0.0883446215723,0.0430224595507,0.37,0.45,0,0,2,878,4
0.259618851318,1.14321629506,0.185438081297,0.192127602962,0.402,0.45,1,1,2,879,4
1.00323782872,0.191721870091,0.132592268144,0.147688183149,0.464,0.45,0,0,1,880,4
0.107412840055,0.119936481413,0.471627673214,1.19386701807,0.432,0.45,3,3,2,881,4
0.161272712761,0.350325476114,1.05879953847,0.307559324732,0.46,0.45,2,2,1,882,4
0.141231162191,1.13368163101,0.223243383096,0.0935216428668,0.415,0.45,1,1,2,883,4
0.111744464784,0.0541811609877,1.07651350723,0.396312883866,0.388,0.45,2,2,2,884,4
0.20992362204,0.0977092625223,0.176144510634,1.05040070049,0.508,0.45,3,3,1,885,4
0.206227100685,0.158562701567,1.12882572126,0.174174408846,0.472,0.45,1,2,-1,886,4
0.176096939367,0.0609753393122,0.856870292816,1.01326755456,0.412,0.45,3,3,2,887,4
1.10219825856,0.376052230761,0.0577792642275,0.165294401272,0.412,0.45,0,0,2,888,4
0.219258413188,0.0639950861651,1.14543425945,0.283087526623,0.345,0.45,1,2,-1,889,4
1.13621384289,0.678328508398,0.0477498818644,0.14137137829,0.438,0.45,0,0,2,890,4
0.288285647775,0.140829813931,1.0326733748,0.324918768231,0.414,0.45,2,2,2,891,4
1.21828655825,0.399789322212,0.189242936235,0.232304639828,0.398,0.45,0,0,2,892,4
0.229166400006,0.126565477255,1.12534040794,0.337504961775,0.372,0.45,2,2,2,893,4
0.389933136563,0.0622305611571,0.395456993912,1.11860078816,0.312,0.45,3,3,2,894,4
0.582608611188,1.06379678369,0.187112465813,0.173747489744,0.315,0.45,1,1,2,895,4
0.445588872092,0.149738619075,0.261559074843,1.01691319819,0.388,0.45,3,3,2,896,4
0.423111915958,0.305053990207,1.01885444277,0.347580723603,0.392,0.45,2,2,2,897,4
0.523154505273,1.00035557647,0.309371409894,0.151403532332,0.386,0.45,1,1,2,898,4
1.02170954574,0.465768054703,0.151170690647,0.22587943283,0.361,0.45,0,0,2,899,4
0.297680580904,0.123242639287,1.05904657917,0.281525946662,0.376,0.45,1,2,-1,900,4
0.26960654683,0.150116354204,1.0748842992,0.261533404317,0.388,0.45,2,2,2,901,4
1.03352312886,0.117529337285,0.113156854394,0.199356990631,0.370000000001,0.45,0,0,2,902,4
0.237925784109,0.104684661511,0.258754113791,1.0950400347,0.346000000001,0.45,3,3,2,903,4
0.515840415352,1.03413986627,0.123500088193,0.133768837114,0.359000000001,0.45,0,1,-1,904,4
0.300233123306,0.117162082603,0.703430590316,1.01043546333,0.421000000001,0.45,3,3,2,905,4
0.266371102163,0.0833652153718,1.04792831106,0.178087109098,0.426000000001,0.45,2,2,2,906,4
0.407629280724,1.12504029276,0.171589816476,0.114638049299,0.439000000001,0.45,1,1,2,907,4
0.506192695078,0.23288843929,0.265539343165,1.03079984012,0.410000000001,0.45,3,3,2,908,4
0.467715746301,1.0353793629,0.16319980206,0.118528258014,0.375000000001,0.45,1,1,2,909,4
0.344386582088,0.512224610225,1.06315790967,0.416209684041,0.488000000001,0.45,2,2,1,910,4
0.315281800627,0.0860877196458,0.184558640962,1.08453261052,0.427000000001,0.45,3,3,2,911,4
1.08195257298,0.31382978021,0.0633337402299,0.102634290451,0.438000000001,0.45,0,0,2,912,4
0.458273188375,0.21278336986,1.01410703969,0.495374228048,0.372000000001,0.45,2,2,2,913,4
1.11876975155,0.492748251629,0.137179643166,0.287008150733,0.423000000001,0.45,0,0,2,914,4
0.414955552881,1.1017269487,0.215733801979,0.304328821805,0.386000000001,0.45,1,1,2,915,4
1.14241151323,0.353461716035,0.155384911712,0.320165069804,0.396000000001,0.45,0,0,2,916,4
0.357510353184,1.14158615063,0.165861563166,0.303299695934,0.385000000001,0.45,1,1,2,917,4
0.283673644203,0.336067126515,1.09099912321,0.402598305713,0.368000000001,0.45,2,2,2,918,4
0.434411457153,0.219711158475,0.27936524645,1.0348931609,0.347000000001,0.45,3,3,2,919,4
0.450439353896,0.213460518979,1.13220183046,0.254543797306,0.369000000001,0.45,2,2,2,920,4
0.633484335672,1.02051740441,0.121182425654,0.180276246866,0.353000000001,0.45,1,1,2,921,4
0.646255594151,0.141216100268,0.194938362464,1.07025893592,0.413000000001,0.45,3,3,2,922,4
1.06226843817,0.296000107919,0.163379910889,0.156000803282,0.365000000001,0.45,1,0,-1,923,4
1.02424710451,0.221448796053,0.214696440622,0.195001754479,0.337000000001,0.45,0,0,2,924,4
0.267627510201,0.160197863407,1.04462745867,0.26117032268,0.339000000001,0.45,2,2,2,925,4
0.310091392261,1.02740064345,0.180540316217,0.183348707515,0.323000000001,0.45,0,1,-1,926,4
0.257705298558,0.220408688626,0.213201109612,1.0893451801,0.402000000001,0.45,3,3,2,927,4
1.06018059617,0.355742884847,0.0972997115843,0.0911694681512,0.380000000001,0.45,0,0,2,928,4
0.292794713826,0.111762127479,0.294248621386,1.13154146168,0.403000000001,0.45,3,3,2,929,4
0.401896321165,0.340367539082,1.0885832464,0.260665453258,0.417000000001,0.45,2,2,2,930,4
0.573571771322,1.06359998923,0.181508275406,0.117679727835,0.388000000001,0.45,1,1,2,931,4
0.393097336855,0.281574492098,0.359518799886,1.00372366778,0.439000000001,0.45,3,3,2,932,4
1.06347305505,0.580314472206,0.116691966952,0.15784933193,0.487000000001,0.45,1,0,-1,933,4
0.297721284765,0.240995134545,1.08361345578,0.209108945992,0.469000000001,0.45,2,2,1,934,4
0.384873073669,0.192011915219,0.462660531168,1.0205982022,0.421000000001,0.45,3,3,2,935,4
1.16930068766,0.740333760814,0.0666732805884,0.0892592246719,0.415000000001,0.45,0,0,2,936,4
0.382897258501,1.09863881736,0.244511336165,0.174727372723,0.372000000001,0.45,1,1,2,937,4
1.03073683444,0.371948819959,0.169274306959,0.185959502072,0.452000000001,0.45,0,0,1,938,4
0.270351799747,0.214777318456,1.0002175267,0.199253158811,0.400000000001,0.45,2,2,2,939,4
1.0477890895,0.177143816728,0.185486344178,0.175700179071,0.351000000001,0.45,0,0,2,940,4
0.346115971939,0.214418774485,1.15446232377,0.183951211856,0.387000000001,0.45,2,2,2,941,4
0.360443533989,1.08161406004,0.139338931132,0.173041208892,0.370000000001,0.45,1,1,2,942,4
0.222885367093,0.0798920277034,0.614702198373,1.08157649264,0.372000000001,0.45,3,3,2,943,4
0.354485866185,0.136078774915,1.03783251897,0.203512011245,0.372000000001,0.45,2,2,2,944,4
0.477805693305,0.113489318741,0.896392431433,1.03139546352,0.419000000001,0.45,3,3,2,945,4
1.0703520129,0.206921126504,0.112987843659,0.116014283455,0.352000000001,0.45,1,0,-1,946,4
0.349281262071,0.319925321553,1.11105225284,0.224921698145,0.407000000001,0.45,2,2,2,947,4
1.03769108039,0.208478491234,0.0627833383374,0.133994986492,0.419000000001,0.45,0,0,2,948,4
0.216857457066,0.143420465469,0.703104370558,1.13753440887,0.388000000001,0.45,3,3,2,949,4
1.03361974026,0.084050063453,0.0651851667544,0.130067632846,0.385000000001,0.45,0,0,2,950,4
0.358206040537,1.12599990643,0.113390423216,0.149142469497,0.375000000001,0.45,1,1,2,951,4
1.04134609153,0.0727118913815,0.117897364901,0.149856338475,0.396000000001,0.45,0,0,2,952,4
0.196931071205,1.00530628868,0.134600878049,0.155484676076,0.363000000001,0.45,1,1,2,953,4
0.142877548289,0.18321835805,1.01928801201,0.291345452634,0.362000000001,0.45,3,2,-1,954,4
0.131052862297,1.16925802409,0.0990292237406,0.128739142458,0.472000000001,0.45,2,1,-1,955,4
0.164968916758,1.18475533106,0.257832859166,0.15836845015,0.504000000001,0.45,1,1,1,956,4
0.106137915912,0.259934450351,1.01004409659,0.258858909684,0.437000000001,0.45,2,2,2,957,4
0.190442783641,0.0968352742613,0.272172352011,1.02048055847,0.513000000001,0.45,3,3,1,958,4
0.234255901868,0.183506463413,0.256434358887,0.305829405986,0.7,0.45,0,-1,0,960,4
0.298284493831,0.155411527676,0.306970764119,1.00131981571,0.501000000001,0.45,3,3,1,960,4
0.305663238731,1.0957710349,0.199883941346,0.149466454969,0.529000000001,0.45,1,1,1,961,4
1.05853293381,0.111103278728,0.200777115803,0.23356210273,0.420000000001,0.45,0,0,2,962,4
0.135270962441,0.13333728104,0.376628693094,1.05916195849,0.381000000001,0.45,2,3,-1,963,4
0.418959216762,1.14769176808,0.323556303751,0.0915452841432,0.427000000001,0.45,0,1,-1,964,4
0.442466349118,1.0865307096,0.227089169207,0.127594351213,0.436000000001,0.45,1,1,2,965,4
0.203617947255,0.266886446197,0.606554592111,1.08351402115,0.391000000001,0.45,3,3,2,966,4
0.304513311475,0.238259252466,1.08522848408,0.245860470463,0.429000000001,0.45,2,2,2,967,4
0.350677942599,0.122996579387,0.44357837562,1.01787433035,0.473000000001,0.45,3,3,1,968,4
0.146354801891,1.14286411291,0.13024914777,0.21622238356,0.463000000001,0.45,1,1,1,969,4
0.117515681142,0.112125910189,1.03600767933,0.482214956235,0.483000000001,0.45,2,2,1,970,4
1.05561243386,0.104545332379,0.0692354021359,0.115186761339,0.497000000001,0.45,0,0,1,971,4
0.210229095685,0.190221722338,1.04595139713,0.180938707335,0.454000000001,0.45,2,2,1,972,4
0.560979644431,1.06388202782,0.0839458783432,0.101082137932,0.516000000001,0.45,1,1,1,973,4
1.03284569481,0.502848705225,0.0925647905655,0.195155124658,0.522000000001,0.45,0,0,1,974,4
0.16504036901,0.111147683638,0.724598171091,1.04227733903,0.545000000001,0.45,3,3,1,975,4
1.01313689734,0.0858693778522,0.0737370348006,0.122854326112,0.523000000001,0.45,0,0,1,976,4
0.222104538617,0.0960388087764,0.163893594009,1.0158338726,0.522000000001,0.45,3,3,1,977,4
0.171065496006,0.234579745617,1.05079013079,0.159732091047,0.577000000001,0.45,2,2,1,978,4
0.224964296326,1.10436753027,0.153308573071,0.125197103599,0.561000000001,0.45,1,1,1,979,4
0.1331750975,0.128374644538,1.09546462739,0.135561147976,0.480000000001,0.45,2,2,1,980,4
0.184931128692,0.157957559618,0.390692878214,1.00436162955,0.447000000001,0.45,3,3,2,981,4
0.787443697249,1.00923516878,0.13013761873,0.111559832115,0.451000000001,0.45,1,1,1,982,4
1.05640658222,0.0465307042613,0.0721170374657,0.135352683252,0.392000000001,0.45,0,0,2,983,4
0.107917015593,0.22454395443,1.14792093881,0.179706244911,0.278000000001,0.45,2,2,2,984,4
1.01398607974,0.128003714488,0.106362851225,0.199442463501,0.512000000001,0.45,0,0,1,985,4
0.287727026596,1.16734658656,0.199526185109,0.169558916376,0.578000000001,0.45,1,1,1,986,4
0.298445340304,0.0873808339548,0.259715942443,1.03166312864,0.495000000001,0.45,3,3,1,987,4
1.13050586691,0.153492000877,0.0600209876996,0.0835739762641,0.452000000001,0.45,0,0,1,988,4
0.158071642872,0.106581629313,0.268669848182,1.06102977673,0.454000000001,0.45,3,3,1,989,4
0.0764457234462,0.18336119958,1.06659616156,0.24378257831,0.468000000001,0.45,2,2,1,990,4
0.578804337472,1.01432220851,0.11815065566,0.198003014543,0.433000000001,0.45,1,1,2,991,4
0.0569010400323,0.0703894365028,0.331162092424,1.02680225499,0.434000000001,0.45,3,3,2,992,4
0.380885769497,1.19265193781,0.0396290737433,0.102002472218,0.452000000001,0.45,1,1,1,993,4
0.131914209978,0.0745914796476,1.17382060695,0.276979909087,0.399000000001,0.45,2,2,2,994,4
1.11474107458,0.089531476501,0.255054367109,0.111671574397,0.375000000001,0.45,0,0,2,995,4
1.32468358251,0.800612314745,0.20650740084,0.165696838031,0.461000000001,0.45,1,0,-1,996,4
1.30172029627,0.208927581025,0.156190197809,0.197436928496,0.439000000001,0.45,0,0,2,997,4
0.138821178173,0.195008516551,1.10574348406,0.251438720846,0.342000000001,0.45,2,2,2,998,4
0.236355854415,0.165596767512,0.544402623919,1.13397355977,0.340000000001,0.45,3,3,2,999,4
1.05793704197,0.233915092701,0.207819567758,0.199491351619,0.386000000001,0.45,0,0,2,1000,4
0.437964476011,0.177498041622,0.334278874652,1.03987241153,0.396000000001,0.45,3,3,2,1001,4
0.396390682123,0.194757941232,1.04156567632,0.178914979588,0.419000000001,0.45,2,2,2,1002,4
0.640260204381,1.12059261182,0.190891142561,0.101798387025,0.442000000001,0.45,1,1,2,1003,4
0.192322301894,0.194455557369,1.12430301624,0.12299200614,0.385000000001,0.45,2,2,2,1004,4
0.17532387433,0.098402677615,0.60623523172,1.08657314776,0.376000000001,0.45,3,3,2,1005,4
1.04681005304,0.211925889827,0.0919575897466,0.0994614178109,0.349000000001,0.45,1,0,-1,1006,4
0.0952708287578,0.167719674613,1.01689193197,0.556866541705,0.584000000001,0.45,3,2,-1,1007,4
0.099622469006,0.121940414744,0.756780590217,1.00165670949,0.0180000000006,0.45,0,3,-1,1008,4
0.164814075666,0.159167407707,0.295485403814,1.00163846398,0.333000000001,0.45,2,3,-1,1009,4
1.04716984274,0.450611052455,0.111071300034,0.0686514922464,0.445000000001,0.45,0,0,2,1010,4
0.208253433011,1.00220653619,0.113728396504,0.203240308803,0.414000000001,0.45,1,1,2,1011,4
1.04900070461,0.0936462714427,0.374469360691,0.276344108054,0.452000000001,0.45,0,0,1,1012,4
0.33472087495,0.123074146242,1.02163786342,0.251858547974,0.344000000001,0.45,3,2,-1,1013,4
0.225410449643,0.124427066625,1.00887472481,0.120224083777,0.400000000001,0.45,2,2,2,1014,4
0.261580099237,1.02562301345,0.205623075677,0.157705274923,0.514000000001,0.45,1,1,1,1015,4
0.131263226635,0.0755177245916,1.0738351914,0.175354655494,0.431000000001,0.45,2,2,2,1016,4
0.308649590545,0.0746153721747,0.274899868925,1.12412801828,0.430000000001,0.45,3,3,2,1017,4
0.180621080136,1.00569790077,0.18166409285,0.0948440393243,0.438000000001,0.45,1,1,2,1018,4
1.07136653527,0.129020405388,0.219905499622,0.168670675568,0.457000000001,0.45,0,0,1,1019,4
0.0994838740979,0.172787104073,1.02092214024,0.238748491807,0.374000000001,0.45,2,2,2,1020,4
1.19731037386,0.111662075271,0.102827210846,0.145163981899,0.402000000001,0.45,0,0,2,1021,4
0.148811482982,1.14175523346,0.345104220667,0.23064163205,0.437000000001,0.45,1,1,2,1022,4
0.0784463355284,0.089706730036,0.535723107676,1.08122541575,0.418000000001,0.45,3,3,2,1023,4
1.18704757032,0.288793737425,0.18570043697,0.183839387968,0.443000000001,0.45,0,0,2,1024,4
0.203954265554,1.02661940081,0.19277036757,0.203000616245,0.397000000001,0.45,1,1,2,1025,4
0.217877148772,0.154311664408,0.773869669346,1.05887151367,0.433000000001,0.45,3,3,2,1026,4
0.0832075839084,0.127370476963,1.04343162437,0.13671259423,0.398000000001,0.45,2,2,2,1027,4
0.0366803883784,1.08311363156,0.0668244854808,0.124048920102,0.356000000001,0.45,1,1,2,1028,4
0.125430507048,0.209473569856,0.481036921682,1.07603763218,0.318000000001,0.45,2,3,-1,1029,4
0.0689917856148,0.137206167179,0.272694890411,1.09178218071,0.490000000001,0.45,3,3,1,1030,4
0.261952966398,1.08502060166,0.157904485826,0.112964782815,0.457000000001,0.45,0,1,-1,1031,4
0.0819953646933,0.0528466319214,1.03159999582,0.239983743631,0.452000000001,0.45,2,2,1,1032,4
1.03503575859,0.149392106483,0.174029638707,0.147649511157,0.368000000001,0.45,0,0,2,1033,4
0.287800944185,0.186951221509,0.508336908645,1.06291412831,0.353000000001,0.45,3,3,2,1034,4
0.38168833777,0.282759177571,1.05191391621,0.139911298521,0.317000000001,0.45,1,2,-1,1035,4
1.13792989624,0.20464406621,0.126814200416,0.149573256117,0.361000000001,0.45,0,0,2,1036,4
0.295622781549,1.15715388994,0.279584991423,0.172992539921,0.434000000001,0.45,1,1,2,1037,4
0.192766286162,0.149447091119,1.10998907762,0.186304116203,0.338000000001,0.45,2,2,2,1038,4
0.313221449286,0.139546017561,0.248839118442,1.04746585148,0.313000000001,0.45,3,3,2,1039,4
0.365986187566,1.11051107728,0.0989584001862,0.0847182361955,0.307000000001,0.45,1,1,2,1040,4
0.328767309725,0.131731561297,0.090854056146,1.03633130738,0.376000000001,0.45,3,3,2,1041,4
0.38545074891,0.19023303529,1.17403090595,0.0678260099672,0.380000000001,0.45,2,2,2,1042,4
0.374155417212,1.02117992021,0.149562511212,0.109057294554,0.357000000001,0.45,1,1,2,1043,4
1.00105376182,0.0781987821991,0.17098943299,0.118883720551,0.341000000001,0.45,0,0,2,1044,4
0.178321671116,0.111190023507,1.10213384795,0.176581338867,0.316000000001,0.45,2,2,2,1045,4
1.2062991803,0.0925022074867,0.0631521548187,0.0765260443724,0.466000000001,0.45,0,0,1,1046,4
0.255206746815,0.134702352463,0.250609960258,1.02454286458,0.422000000001,0.45,3,3,2,1047,4
1.03253639311,0.208855773493,0.0997473298171,0.103737286578,0.412000000001,0.45,0,0,2,1048,4
0.213851220133,0.115635004042,0.190034531346,1.03667444406,0.384000000001,0.45,3,3,2,1049,4
0.411576979378,1.0145236833,0.0693627891123,0.0612556360219,0.356000000001,0.45,1,1,2,1050,4
0.232187995091,0.0966951478826,1.07157142302,0.14574859465,0.354000000001,0.45,2,2,2,1051,4
0.189091808827,0.0862018396513,0.27637795381,1.01257887111,0.383000000001,0.45,3,3,2,1052,4
0.637096752415,1.22215678238,0.129645500051,0.0877902720559,0.373000000001,0.45,2,1,-1,1053,4
0.234340685538,1.12915209755,0.138494928976,0.11075327475,0.368000000001,0.45,1,1,2,1054,4
1.22698480827,0.203606414545,0.151373762056,0.139283854513,0.379000000001,0.45,0,0,2,1055,4
0.172965168305,1.02644453978,0.29975925479,0.178766802168,0.475000000001,0.45,1,1,1,1056,4
0.140462769917,0.083792934103,0.599890368926,1.0155745566,0.543000000001,0.45,3,3,1,1057,4
1.0959273955,0.177682925261,0.0587372760196,0.0759316801531,0.463000000001,0.45,0,0,1,1058,4
0.144910783665,0.186829365473,1.09425133775,0.298651721396,0.415000000001,0.45,2,2,2,1059,4
1.0187684466,0.0892991225908,0.157899255289,0.134853009234,0.465000000001,0.45,0,0,1,1060,4
0.342533324726,0.219629414419,0.23425021162,1.05691672562,0.409000000001,0.45,2,3,-1,1061,4
0.111730935225,1.11206879852,0.142355187369,0.0674140167901,0.413000000001,0.45,1,1,2,1062,4
0.0833862160998,0.112037051829,0.30285330854,1.08975442231,0.395000000001,0.45,3,3,2,1063,4
1.10724089689,0.326396634519,0.170473310416,0.0905069329146,0.375000000001,0.45,1,0,-1,1064,4
0.0669930477968,0.0831587354926,1.17412032131,0.188910454022,0.379000000001,0.45,2,2,2,1065,4
0.142481341099,0.16697076037,0.234180058214,1.03877061021,0.417000000001,0.45,3,3,2,1066,4
1.05008819926,0.331393208229,0.097637467076,0.15230318929,0.433000000001,0.45,0,0,2,1067,4
0.246556022253,0.19169530494,0.801326444202,1.05420422041,0.448000000001,0.45,3,3,2,1068,4
0.146392661118,0.179926883207,1.1104654533,0.17593233305,0.434000000001,0.45,2,2,2,1069,4
1.11241475051,0.508694158916,0.0572860064796,0.13614312268,0.435000000001,0.45,0,0,2,1070,4
0.144444306184,1.10704916246,0.775609724587,0.256728656345,0.462000000001,0.45,1,1,1,1071,4
1.19087650525,0.0289178415538,0.0490877549947,0.131621946295,0.434000000001,0.45,0,0,2,1072,4
0.115678487699,0.0500059490646,1.12895461489,0.226933388885,0.400000000001,0.45,2,2,2,1073,4
0.24495848199,0.0409095999947,0.403868028945,1.19963167875,0.326000000001,0.45,3,3,2,1074,4
0.211179580933,1.03025547977,0.149907152828,0.0709697922207,0.335000000001,0.45,1,1,2,1075,4
0.0968209221429,0.23883734108,0.148239315364,1.07582326637,0.371000000001,0.45,3,3,2,1076,4
0.0996727348719,0.11287207487,1.00026388072,0.375911818134,0.432000000001,0.45,2,2,2,1077,4
0.0727876393651,1.09545321647,0.163306434311,0.182053010237,0.392000000001,0.45,1,1,2,1078,4
1.12887143166,0.169688971011,0.1737885391,0.223257195618,0.355000000001,0.45,0,0,2,1079,4
0.281079917078,0.225977244355,0.28878019494,1.00020595888,0.380000000001,0.45,3,3,2,1080,4
1.11068137158,0.297036398851,0.156334866501,0.131733835341,0.376000000001,0.45,0,0,2,1081,4
0.238951576482,0.150592350429,1.13299227188,0.232488246307,0.390000000001,0.45,1,2,-1,1082,4
0.137882042688,0.190012601658,1.05669128091,0.182662930002,0.392000000001,0.45,2,2,2,1083,4
1.0586282172,0.17597539643,0.138601041479,0.0943218903935,0.350000000001,0.45,0,0,2,1084,4
1.16030097769,0.495296756106,0.485560263425,0.544995004239,0.509000000001,0.45,0,0,1,1085,5
0.541288868267,0.116653563364,0.512698365707,1.07934288816,0.410000000001,0.45,3,3,2,1086,5
0.650301237043,1.21253351352,0.187979492645,0.23095830416,0.321000000001,0.45,1,1,2,1087,5
0.5042248958,0.105220964661,1.08954069998,0.224220299158,0.274000000001,0.45,2,2,2,1088,5
0.430614205465,0.205735536704,0.402924394111,1.20626196522,0.294000000001,0.45,3,3,2,1089,5
0.455940450062,0.66740263529,0.521296612917,1.01969966537,0.409000000001,0.45,2,3,-1,1090,5
0.336667172674,1.09341492049,0.155246058782,0.204262659652,0.423000000001,0.45,1,1,2,1091,5
1.14812446429,0.196782642196,0.150706206467,0.343721803276,0.360000000001,0.45,0,0,2,1092,5
0.803017261707,1.1608255181,0.296893485271,0.227964568387,0.475000000001,0.45,1,1,1,1093,5
0.429975153498,0.203019351624,0.44971418481,1.14672706071,0.397000000001,0.45,3,3,2,1094,5
1.09942865478,0.694215614308,0.0837268444317,0.145029372382,0.393000000001,0.45,0,0,2,1095,5
0.501828231365,0.199369410794,1.10208597281,0.383532185163,0.330000000001,0.45,2,2,2,1096,5
1.11370497401,0.369832443065,0.140615088287,0.345702999149,0.362000000001,0.45,0,0,2,1097,5
0.424961350261,0.228545952864,1.05341057978,0.505109740776,0.358000000001,0.45,2,2,2,1098,5
1.05501388423,0.486953252657,0.185582749137,0.592172098482,0.413000000001,0.45,1,0,-1,1099,5
0.346999803782,0.158919049503,0.152773163214,1.10570169566,0.337000000001,0.45,3,3,2,1100,5
0.34419953712,1.01370588442,0.0807944565481,0.150380622667,0.324000000001,0.45,1,1,2,1101,5
0.401383309616,0.157500384469,1.02910164785,0.384527362937,0.371000000001,0.45,2,2,2,1102,5
0.348503857921,0.284676476197,0.289383217761,1.04652081111,0.441000000001,0.45,3,3,2,1103,5
0.267220605092,0.178176746963,1.02129641861,0.272951892602,0.425000000001,0.45,2,2,2,1104,5
1.21098742834,0.265807415093,0.318022890409,0.29172674416,0.389000000001,0.45,0,0,2,1105,5
0.246849856177,1.14179258711,0.30921854188,0.264350325578,0.352000000001,0.45,1,1,2,1106,5
1.1872783406,0.320411618866,0.182026838469,0.332365847104,0.435000000001,0.45,0,0,2,1107,5
0.234255816223,0.119895168207,1.00455659392,0.348184066329,0.385000000001,0.45,3,2,-1,1108,5
1.21861948977,0.467369426662,0.113836720512,0.146592270714,0.433000000001,0.45,0,0,2,1109,5
0.236100544056,0.144230829047,0.316923113304,1.20941899382,0.373000000001,0.45,3,3,2,1110,5
0.62357334296,1.21079222474,0.185052877545,0.238247566061,0.383000000001,0.45,1,1,2,1111,5
0.296473635412,0.382323549737,1.0088459824,0.292288258323,0.374000000001,0.45,2,2,2,1112,5
0.328283431461,1.05577843252,0.0835703703817,0.203812396529,0.335000000001,0.45,1,1,2,1113,5
0.183976331338,0.187268302518,1.01143990905,0.313466387979,0.319000000001,0.45,3,2,-1,1114,5
0.269700441567,0.184776347013,1.1059076356,0.299828533351,0.364000000001,0.45,2,2,2,1115,5
1.03980528256,0.339041931425,0.167946631094,0.176958372784,0.358000000001,0.45,0,0,2,1116,5
0.287413541264,1.19649536163,0.553195422462,0.208219102431,0.371000000001,0.45,1,1,2,1117,5
1.06202296916,0.424883371599,0.152208819865,0.291758019201,0.411000000001,0.45,0,0,2,1118,5
0.14512772556,0.184246861809,1.13568144922,0.356439262748,0.372000000001,0.45,2,2,2,1119,5
0.228775961563,0.178997607458,0.422611041646,1.18899608964,0.421000000001,0.45,3,3,2,1120,5
1.07273724578,0.307127281362,0.17788976144,0.194143329996,0.388000000001,0.45,0,0,2,1121,5
0.200425436867,1.18915949024,0.15921825357,0.259002113815,0.436000000001,0.45,1,1,2,1122,5
0.283243700005,0.0666796713243,0.116586884626,1.08909303366,0.386000000001,0.45,3,3,2,1123,5
0.350211867519,0.11859045085,1.08350741582,0.570736334421,0.450000000001,0.45,2,2,1,1124,5
0.477622170514,1.19992751657,0.074783649209,0.165657984833,0.396000000001,0.45,1,1,2,1125,5
0.227766261517,0.238324632991,1.05000546558,0.607444720175,0.388000000001,0.45,2,2,2,1126,5
0.269352640147,0.160087143625,0.313938137059,1.09413843838,0.355000000001,0.45,3,3,2,1127,5
0.409915515763,1.11635983669,0.179635296159,0.185288256466,0.365000000001,0.45,1,1,2,1128,5
1.00113709099,0.370756146611,0.155759138338,0.267135887934,0.379000000001,0.45,0,0,2,1129,5
0.155162211476,0.1455728171,0.439516672844,1.00371313362,0.321000000001,0.45,3,3,2,1130,5
1.08818373861,0.747524433701,0.112986971001,0.215671674186,0.393000000001,0.45,0,0,2,1131,5
0.32720523182,0.243903102602,1.00394755893,0.425150046364,0.361000000001,0.45,2,2,2,1132,5
1.10863071563,0.203918537032,0.106552207762,0.155615304203,0.388000000001,0.45,0,0,2,1133,5
1.01485272989,0.286953150469,0.167940310141,0.247551204586,0.362000000001,0.45,1,0,-1,1134,5
0.158038801822,0.105412794935,1.03498731724,0.337362188178,0.322000000001,0.45,2,2,2,1135,5
0.183967826286,0.145388549342,0.690913107746,1.12500763407,0.322000000001,0.45,3,3,2,1136,5
0.364231748609,1.0343287318,0.215416022141,0.20230039969,0.379000000001,0.45,1,1,2,1137,5
0.147498971887,0.123714594319,1.04056148675,0.545439924207,0.325000000001,0.45,3,2,-1,1138,5
0.140816014173,0.518639875895,1.05782319052,0.258562859865,0.455000000001,0.45,2,2,1,1139,5
1.1218726556,0.118151881925,0.072052187919,0.206703872558,0.413000000001,0.45,0,0,2,1140,5
0.126685289097,0.263499861818,1.08595955958,0.263877235306,0.374000000001,0.45,2,2,2,1141,5
0.12875626656,1.01018815628,0.269763625582,0.27312490325,0.413000000001,0.45,1,1,2,1142,5
1.08734940835,0.249240681054,0.215372387125,0.29609133865,0.356000000001,0.45,0,0,2,1143,5
0.309072782244,0.202630729631,1.04469363209,0.517818505127,0.337000000001,0.45,3,2,-1,1144,5
1.08213035398,0.547859724349,0.0907211840219,0.19048571236,0.459000000001,0.45,0,0,1,1145,5
0.215022049113,0.268063526994,1.02946108848,0.367606202498,0.407000000001,0.45,2,2,2,1146,5
0.190587100876,0.0968248263989,0.2031399528,1.14808262032,0.368000000001,0.45,3,3,2,1147,5
0.528421003075,1.02824370145,0.108163989199,0.129457847292,0.386000000001,0.45,1,1,2,1148,5
0.245814199642,0.197684035183,0.466663764946,1.0965975255,0.393000000001,0.45,3,3,2,1149,5
0.290748300374,0.139047815689,0.349821075785,0.109282276851,0.7,0.45,2,-1,0,1151,5
0.261896331144,0.170151034896,1.01880233965,0.0446091660127,0.189000000001,0.45,1,2,-1,1151,5
0.18110152683,0.19467667302,1.02656165155,0.0993418439113,0.341000000001,0.45,2,2,2,1152,5
1.03545864633,0.368650032668,0.0924471848797,0.117160002034,0.378000000001,0.45,0,0,2,1153,5
0.954423221473,1.06933112149,0.178102849501,0.221736775949,0.431000000001,0.45,1,1,2,1154,5
1.02601517824,0.281568396591,0.472110636702,0.294678523152,0.490000000001,0.45,0,0,1,1155,5
0.31596378356,0.192064690137,1.00531869022,0.353049273199,0.399000000001,0.45,3,2,-1,1156,5
1.08023170682,0.267847219673,0.154030051168,0.136808803945,0.454000000001,0.45,0,0,1,1157,5
0.32179557851,0.238743608256,1.0639902088,0.358603172691,0.410000000001,0.45,2,2,2,1158,5
0.556597353188,1.05502575627,0.183298558093,0.248308528776,0.506000000001,0.45,1,1,1,1159,5
0.24416014578,0.16385339193,0.263326235309,1.15986675756,0.389000000001,0.45,3,3,2,1160,5
0.239805097068,1.02082615308,0.176363938463,0.067613133292,0.361000000001,0.45,1,1,2,1161,5
0.192649194224,0.16454466986,1.05493459923,0.24586563315,0.349000000001,0.45,2,2,2,1162,5
0.110019450881,0.0942547314363,0.636256812153,1.08948143037,0.349000000001,0.45,3,3,2,1163,5
0.156235906188,0.552706113561,0.97284492748,1.02747133844,0.478000000001,0.45,2,3,-1,1164,5
1.06009818527,0.182250083481,0.162093221412,0.159043741539,0.472000000001,0.45,0,0,1,1165,5
0.226229000261,1.03423187075,0.191972982692,0.189394922623,0.359000000001,0.45,1,1,2,1166,5
1.13927668559,0.285750892581,0.238468950589,0.246187664738,0.424000000001,0.45,0,0,2,1167,5
0.247984205882,0.141323131217,0.400963204044,1.10373018487,0.384000000001,0.45,3,3,2,1168,5
1.06566728184,0.417338676467,0.202034092728,0.125126450475,0.326000000001,0.45,0,0,2,1169,5
0.273161071437,0.0930510581293,0.810611529991,1.0115547483,0.360000000001,0.45,3,3,2,1170,5
0.789059459939,1.1506409734,0.134826849533,0.0974453757506,0.388000000001,0.45,1,1,2,1171,5
0.153639532522,0.133858143763,1.11146962013,0.288546221582,0.375000000001,0.45,2,2,2,1172,5
0.13000350634,0.135828699737,0.164285495646,1.04751196293,0.367000000001,0.45,3,3,2,1173,5
0.2082152244,0.332737613533,1.05177779662,0.309335180619,0.553000000001,0.45,2,2,1,1174,5
0.0877455411091,1.00686318716,0.0347817613003,0.0641238891023,0.476000000001,0.45,1,1,1,1175,5
1.03228998906,0.117324030137,0.235962120002,0.28745913423,0.449000000001,0.45,0,0,2,1176,5
0.204498185538,0.151620899755,1.08997048868,0.346054041844,0.385000000001,0.45,2,2,2,1177,5
1.16597240612,0.256827906691,0.141196411387,0.265349847618,0.417000000001,0.45,0,0,2,1178,5
0.10226423651,1.27611233001,0.136205035519,0.290569521059,0.416000000001,0.45,1,1,2,1179,5
0.19243262109,0.137568950424,0.365192304383,1.0899286296,0.371000000001,0.45,3,3,2,1180,5
1.13371199014,0.122899696354,0.163521045319,0.21235014966,0.432000000001,0.45,0,0,2,1181,5
0.202301634139,1.27961484068,0.0998011475159,0.251799822496,0.375000000001,0.45,1,1,2,1182,5
0.135933068473,1.03445016027,0.182737023235,0.317696588553,0.392000000001,0.45,2,1,-1,1183,5
0.134066300593,0.0974497781761,0.0655329869892,1.02838707234,0.444000000001,0.45,3,3,2,1184,5
0.202443023482,0.158747908267,1.03514401326,0.414607413927,0.456000000001,0.45,2,2,1,1185,5
0.663865239772,1.09275847017,0.301919883206,0.0808700827839,0.588000000001,0.45,1,1,1,1186,5
1.05634343289,0.715681918268,0.173909082594,0.403377999139,0.541000000001,0.45,3,0,-1,1187,5
0.185352906121,1.13431249564,0.217024144994,0.118777479815,0.525000000001,0.45,1,1,1,1188,5
