force_0,force_1,force_2,force_3,rt,rt_threshold,target_finger,selected_finger,score,trial,run
1.58083370924,1.26259453935,1.28472878847,1.73973696688,0.005,0.45,3,3,2,0,0
0.000738866802588,0.0310850494657,1.14496647532,0.208752409995,0.471,0.45,2,2,1,1,0
1.18345721915,0.175743024129,0.27587508337,0.0648250606335,0.432,0.45,0,0,2,2,0
0.256943755091,1.08389316657,0.218684555948,0.284074883779,0.424,0.45,1,1,2,3,0
0.31215932643,0.180384700072,1.05689607416,0.1648061724,0.427,0.45,2,2,2,4,0
0.502060950398,1.01231923431,0.176079058238,0.20982370619,0.443,0.45,1,1,2,5,0
1.24522703272,0.267708259115,-0.00566406176048,0.228030045275,0.393,0.45,0,0,2,6,0
0.211834413236,0.150910276806,0.553953677546,1.09128992532,0.393,0.45,3,3,2,7,0
1.11824130311,0.33166056935,0.0424119029685,0.0913310317169,0.409,0.45,0,0,2,8,0
0.360321753623,0.00844432725187,1.00747018316,0.579166239328,0.371,0.45,2,2,2,9,0
0.302997859545,-0.00666044431745,0.154327984423,1.14961104889,0.407,0.45,3,3,2,10,0
0.637277112196,1.03657207719,0.00379050684283,0.119806139786,0.476,0.45,1,1,1,11,0
0.271159389599,0.0857231543798,0.107573939218,1.28462743288,0.433,0.45,3,3,2,12,0
1.20109017402,0.597468101254,0.0158544341221,0.264909028805,0.419,0.45,0,0,2,13,0
0.544806094583,1.06610054884,0.00878611890448,0.24082313777,0.393,0.45,1,1,2,14,0
0.474887767574,0.167647758145,1.01471458473,0.330449118724,0.377,0.45,2,2,2,15,0
1.11277671366,0.489722554276,0.204556795887,0.287678286974,0.37,0.45,1,0,-1,16,0
1.09869823232,0.392951674969,0.0513521194598,0.247114727928,0.5,0.45,0,0,1,17,0
0.30849586806,0.179257033335,1.01202430677,0.320434491917,0.44,0.45,2,2,2,18,0
1.05351485401,0.252438803814,0.0652766884099,0.347798893238,0.457,0.45,0,0,1,19,0
0.27927624921,0.169572820159,0.208637752662,1.09394827808,0.412,0.45,3,3,2,20,0
0.425977014993,0.0963936824589,1.09401330896,0.263954222966,0.457,0.45,2,2,1,21,0
0.226662891724,0.00173803143436,0.0786725015835,1.04698408405,0.404,0.45,3,3,2,22,0
0.369853100539,1.09108850689,0.0348859883485,0.0542442980903,0.449,0.45,1,1,2,23,0
0.161020255067,0.124823201643,0.0103540905814,1.14960397669,0.402,0.45,3,3,2,24,0
0.469989665917,1.01021433632,0.00809420318199,0.161066470241,0.409,0.45,1,1,2,25,0
1.12201369068,0.28651480652,0.00784631931435,0.268428249566,0.392,0.45,0,0,2,26,0
0.0244664757713,0.0888990834209,1.10811912088,0.594152771086,0.431,0.45,2,2,2,27,0
1.24086078054,0.11464062303,0.0178118224762,0.108728783883,0.437,0.45,0,0,2,28,0
0.276423766928,1.03559732652,0.123558758028,0.305295980006,0.481,0.45,1,1,1,29,0
0.449642236001,0.191644922212,1.02892572711,0.19628006687,0.462,0.45,2,2,1,30,0
0.512656790371,1.1883343323,0.231693847644,0.232075153141,0.447,0.45,1,1,2,31,0
0.346040040413,0.177982146309,0.163417540162,1.06173066148,0.433,0.45,3,3,2,32,0
0.110018215023,0.543394213607,1.13583082351,0.385056938583,0.536,0.45,2,2,1,33,0
0.130565072065,0.302187252344,0.153163962125,1.9071701893,0.575,0.45,3,3,1,34,0
1.04983212322,0.1758522477,0.0245509168652,0.154624277885,0.461,0.45,0,0,1,35,0
0.0263865246816,0.219949126029,0.00250739451772,1.12803576208,0.374,0.45,3,3,2,36,0
0.147506091405,1.19030824099,-0.00153748021074,0.218654785655,0.368,0.45,2,1,-1,37,0
0.0365044796088,1.05943973455,0.00798782206526,0.103330064866,0.444,0.45,0,1,-1,38,0
0.0795721527482,0.233052124493,0.240451542421,0.215288368034,0.7,0.45,1,-1,0,40,0
0.194118146804,1.09941680701,0.203890048259,0.133976054082,0.134,0.45,2,1,-1,40,0
0.0379738429986,1.15043382185,0.0277689248592,0.145385744351,0.347,0.45,1,1,2,41,0
1.16816840047,0.235287263849,0.00912443989868,0.217068970589,0.442,0.45,0,0,2,42,0
0.241013086487,0.110166459455,0.297612402352,1.30661222383,0.639,0.45,3,3,1,43,0
0.0568189259852,1.01426998069,0.06131219346,0.0987411097831,0.488,0.45,1,1,1,44,0
0.0452306567231,0.156952324516,0.0258384795886,1.06740232568,0.41,0.45,3,3,2,45,0
1.0256423849,0.206549232462,0.0042115228882,0.225840682444,0.401,0.45,0,0,2,46,0
0.463565647869,0.0209670405974,1.10781909733,0.52579905466,0.438,0.45,2,2,2,47,0
0.374840787307,0.469595484087,0.133893465973,1.11558720203,0.514,0.45,3,3,1,48,0
1.02310013058,0.33269702695,0.129184773068,0.155807200462,0.547,0.45,0,0,1,49,0
0.322732751663,0.184129549115,1.16338850965,0.317758606742,0.517,0.45,2,2,1,50,0
0.545110709743,1.13418986238,0.131757912995,0.214412617583,0.593,0.45,1,1,1,51,0
0.70095213722,0.240445552067,1.09924350409,0.280582689401,0.592,0.45,2,2,1,52,0
1.01044433241,0.274973955746,0.0657744433687,0.129526801452,0.573,0.45,0,0,1,53,0
0.530432865165,1.14640398185,0.0582576698386,0.219820189542,0.589,0.45,1,1,1,54,0
0.291000381454,0.135383113913,0.30313785798,1.00196771744,0.514,0.45,3,3,1,55,0
0.40018945764,1.06528793179,0.0308241161752,0.113266540999,0.483,0.45,1,1,1,56,0
1.08265829296,0.108335792353,0.0102196791733,0.17237795582,0.374,0.45,0,0,2,57,0
0.406882924452,0.120023743325,0.313667226811,1.27371708195,0.44,0.45,3,3,2,58,0
0.527710585611,0.230876037155,1.00499199809,0.51380412614,0.442,0.45,2,2,2,59,0
0.258058480926,0.147316821264,0.000163053272888,1.11663810243,0.43,0.45,3,3,2,60,0
0.365967007278,0.0761010976838,1.04341422391,0.299105076026,0.341,0.45,2,2,2,61,0
1.06080917564,0.261038331741,0.114245945815,0.236082944865,0.365,0.45,0,0,2,62,0
0.529328922185,1.68973303238,0.212027354207,0.273765848664,0.354,0.45,1,1,2,63,0
0.347394445885,0.193423790944,0.63326052874,1.0067630415,0.403,0.45,2,3,-1,64,0
1.27902836377,0.159955335328,0.242905723362,0.167793492081,0.417,0.45,1,0,-1,65,0
1.0851296544,0.287011107604,0.00914513985274,0.126089038802,0.598,0.45,0,0,1,66,0
0.0160935906693,0.302740546005,0.00803749736171,1.10406189558,0.462,0.45,3,3,1,67,0
1.27229099097,0.0975988993181,-0.000383459615911,0.269836428095,0.401,0.45,0,0,2,68,0
0.459280035976,0.00546590293388,1.45285106818,0.52633089339,0.456,0.45,2,2,1,69,0
0.341105074067,0.413180748172,0.14216998386,1.07225682344,0.451,0.45,3,3,1,70,0
0.284859716399,1.05241975613,0.17238604603,0.234690232504,0.366,0.45,1,1,2,71,0
0.268131119565,0.287929218817,0.0604158115568,1.08864382425,0.352,0.45,3,3,2,72,0
0.343798649874,0.31241880797,1.58421076622,0.437165805076,0.452,0.45,2,2,1,73,0
1.0306448505,0.209986755684,0.150523368863,0.191576697292,0.399,0.45,0,0,2,74,0
0.66636571056,1.01257062266,0.544635740172,0.213903888574,0.458,0.45,1,1,1,75,0
0.723269222663,1.00440395694,0.0413156215912,0.127377659389,0.062,0.45,0,1,-1,76,0
1.05797283063,0.32392443901,0.0165748236026,0.0754944831109,0.057,0.45,2,0,-1,77,0
0.780381773022,1.01234666703,0.0991477063101,0.267682889031,0.441,0.45,1,1,2,78,0
0.394193586797,0.0673084299141,0.0122427629455,1.19133047559,0.345,0.45,3,3,2,79,0
1.05854467622,0.21700361011,0.00846328061214,0.0706146109078,0.3,0.45,0,0,2,80,0
0.521814372917,0.145118624419,0.0103529612923,1.14900723733,0.428,0.45,3,3,2,81,0
0.871360711874,1.05366191438,0.13958124986,0.100767469613,0.391,0.45,1,1,2,82,0
0.540378055764,0.50427518298,1.02389945337,0.304658025383,0.33,0.45,2,2,2,83,0
0.199705871969,0.0732519012401,0.541447852276,1.05140772421,0.482,0.45,3,3,1,84,0
1.14502982148,0.490273525579,0.2475292328,0.288566624809,0.436,0.45,1,0,-1,85,0
0.0235191145414,0.786348131049,1.06009922514,0.2563572051,0.533,0.45,2,2,1,86,0
1.01401323003,0.206169245952,0.12832415284,0.21180574019,0.457,0.45,0,0,1,87,0
0.0880436522414,0.407283146093,1.09319363322,0.283449414543,0.554,0.45,2,2,1,88,0
0.117866112244,2.18073942684,0.0298683860167,0.12230838921,0.7,0.45,1,-1,0,90,0
0.117866112244,2.18073942684,0.0298683860167,0.12230838921,0.174,0.45,0,1,-1,90,0
1.13553153939,0.032176102671,0.0240336086742,0.199560689769,0.033,0.45,1,0,-1,91,0
0.167227067261,0.208313861763,0.521868341766,1.00033649554,0.551,0.45,3,3,1,92,0
1.10115403267,0.232019899324,0.0866579185598,0.15738907224,0.455,0.45,0,0,1,93,0
0.0625048905857,0.167732526915,0.0194618724558,1.04481130778,0.39,0.45,3,3,2,94,0
0.0831165037229,0.126447742996,1.12844469085,0.170767409726,0.435,0.45,2,2,2,95,0
0.112519088675,0.158870537105,0.403763693544,1.10176411577,0.38,0.45,3,3,2,96,0
0.066401220859,0.059037178933,1.04384210097,0.266986234214,0.318,0.45,2,2,2,97,0
1.05678063919,0.0247736182296,0.262561326471,0.165586962739,0.436,0.45,0,0,2,98,0
0.693478216201,1.10790352224,0.299482079738,0.169892871438,0.57,0.45,1,1,1,99,0
0.02386072293,0.0356274609082,1.05295465979,0.0606369996875,0.589,0.45,2,2,1,100,0
0.0517551902243,0.958223332294,0.291263571654,0.369517650828,0.7,0.45,1,-1,0,102,0
0.0514476375376,1.14703206197,0.290276741249,0.380974476645,0.00900000000005,0.45,0,1,-1,102,0
0.0691690205274,0.250133655961,0.546187296256,1.05072030509,0.399,0.45,3,3,2,103,0
1.05461994243,0.310148752233,0.12888030395,0.303558426101,0.324,0.45,0,0,2,104,0
0.0606038840648,0.165112400057,1.11261157002,0.478362639051,0.383,0.45,2,2,2,105,0
0.287842158454,0.173284679316,0.692156118995,1.11887110633,0.41,0.45,3,3,2,106,0
0.747626906434,1.01098654104,0.215341594649,0.300411550136,0.367,0.45,1,1,2,107,0
0.123141957344,0.0334633124029,1.1607442241,0.360654238741,0.357,0.45,3,2,-1,108,0
0.317321652918,1.16879361711,0.0355935903592,0.264492694085,0.515,0.45,1,1,1,109,0
1.10430263946,0.17736307601,0.0245440798346,0.218120006214,0.426,0.45,0,0,2,110,0
0.0625247297084,0.307637389967,1.01654245824,0.523599579657,0.44,0.45,2,2,2,111,0
1.2058171777,0.311039157639,0.280571558306,0.391352669998,0.606,0.45,0,0,1,112,0
0.0500547926096,1.0750597882,0.292226531952,0.490608774561,0.515,0.45,1,1,1,113,0
0.0303168713785,1.14611988025,-0.00593147885175,0.16090443191,0.417,0.45,2,1,-1,114,0
0.029221782624,0.0835070171873,0.131579855673,1.1434075864,0.468,0.45,3,3,1,115,0
1.02972889438,0.445567332101,0.0205510084723,0.143016576466,0.44,0.45,0,0,2,116,0
0.0235320159222,0.0606556301599,0.0771287986283,1.14491536812,0.505,0.45,3,3,1,117,0
0.0745587789683,0.0223972270499,1.03070965623,0.549417740488,0.524,0.45,2,2,1,118,0
1.08220340075,0.292071735607,0.30686504314,0.268971504546,0.436,0.45,1,0,-1,119,0
0.10477369377,0.120328795508,0.237629242499,1.03621538648,0.427,0.45,3,3,2,120,0
0.194951006426,1.0997463434,0.155109543235,0.223374470107,0.39,0.45,1,1,2,121,0
1.07281016533,0.222004734425,0.16394135421,0.222258319387,0.339,0.45,0,0,2,122,0
0.275144903589,0.0728291909314,1.15488601652,0.343317192125,0.302,0.45,2,2,2,123,0
0.57833931246,1.06592774006,0.1657889618,0.23163796774,0.411,0.45,1,1,2,124,0
0.3305662128,0.0679402477508,1.16311807716,0.185748812412,0.325,0.45,2,2,2,125,0
1.31810385644,0.15819324947,0.182477772196,0.158371083036,0.355,0.45,0,0,2,126,0
0.293506858555,0.0569352917478,0.436807983514,1.03755954853,0.405,0.45,3,3,2,127,0
0.0918428318398,0.0738651055084,1.09341570955,0.364725458675,0.445,0.45,2,2,2,128,0
0.107725602097,0.10109665235,0.369485194863,1.24577812667,0.432,0.45,3,3,2,129,0
1.17950878348,0.256773052803,0.180974917262,0.234483323808,0.405,0.45,0,0,2,130,0
0.067348425364,1.17050368241,0.189338026279,0.370947510674,0.357,0.45,1,1,2,131,0
0.024337242135,0.23842791227,0.821962589172,1.08875746464,0.324,0.45,3,3,2,132,0
1.07282821896,0.25559579117,0.0102294732437,0.385286280597,0.344,0.45,1,0,-1,133,0
0.0491771095038,0.283806199118,1.1274703817,0.569555650329,0.522,0.45,2,2,1,134,0
0.19464167628,1.17682949349,0.197230825812,0.296528010436,0.487,0.45,0,1,-1,135,0
0.244793924399,0.0417790574908,1.04044390891,0.296484966272,0.584,0.45,2,2,1,136,0
0.745789216618,0.884839424307,0.20922777836,0.392979000794,0.7,0.45,1,-1,0,138,0
1.10457609732,0.0601961326199,0.0747486505887,0.147103848778,0.482,0.45,0,0,1,138,0
0.159046269519,0.0750191297085,1.08054474723,0.183884600826,0.369,0.45,1,2,-1,139,0
0.132958109837,0.0909019135424,0.694010442813,1.05971367613,0.503,0.45,3,3,1,140,0
0.112906108831,0.290580712718,1.06184288383,0.209312852674,0.506,0.45,2,2,1,141,0
0.0851685754669,0.0974829682514,0.362565295126,1.01594849829,0.444,0.45,3,3,2,142,0
1.14732752073,0.169732465867,0.0354525440059,0.113229094656,0.382,0.45,0,0,2,143,0
0.244279124403,0.492277417508,1.04924326202,0.251544036949,0.373,0.45,3,2,-1,144,0
1.04667452904,0.619981610895,0.0286086290451,0.12361337796,0.392,0.45,1,0,-1,145,0
1.17201649937,0.153833108795,0.0086997903709,0.191464415248,0.499,0.45,0,0,1,146,0
0.0549503738152,0.250182015994,1.03771049813,0.365371784462,0.483,0.45,2,2,1,147,0
1.03856606351,0.277465254324,0.329244306063,0.231974334394,0.481,0.45,0,0,1,148,0
0.232041838294,1.01333810898,0.122042802095,0.297561370199,0.518,0.45,1,1,1,149,0
0.303246763389,0.252617784133,1.02678299036,0.299516124228,0.435,0.45,2,2,2,150,0
0.262837018847,0.161988423434,0.112733240562,1.00045055158,0.357,0.45,3,3,2,151,0
0.54935011664,0.0720589044173,1.03992499202,0.173336229338,0.472,0.45,2,2,1,152,0
0.403792175956,1.05465557841,0.0175314828474,0.182316252578,0.421,0.45,1,1,2,153,0
0.224230044356,0.0414871179466,0.00838151838862,1.04640924773,0.366,0.45,3,3,2,154,0
1.06127066552,0.182235949343,0.00788240721337,0.15148485325,0.337,0.45,0,0,2,155,0
0.382754125016,0.0737601534528,0.00781836314722,1.17281504566,0.436,0.45,3,3,2,156,0
0.274315843034,0.140332418439,1.11030861276,0.246453281279,0.45,0.45,2,2,1,157,0
1.11332856302,0.281766846558,0.0228400309093,0.139117657415,0.45,0.45,0,0,1,158,0
0.393968667058,1.01459105847,0.0411032075906,0.19206409707,0.441,0.45,1,1,2,159,0
1.06456254434,0.185361377404,0.063478833841,0.218056513456,0.417,0.45,0,0,2,160,0
0.277429107878,0.596579920853,1.13865560196,0.425861057318,0.508,0.45,2,2,1,161,0
0.109658695651,1.07850466302,-0.0154623192581,0.114065225847,0.417,0.45,1,1,2,162,0
0.146985323974,0.0621466191572,1.06340167556,0.443965857048,0.371,0.45,2,2,2,163,0
0.49931758606,0.0823618828152,0.377119246319,1.05255268927,0.417,0.45,3,3,2,164,0
1.26695695626,0.370561199747,0.0678267848344,0.26434648696,0.353,0.45,0,0,2,165,0
0.563825857769,0.183908994976,0.672047261118,1.00005460674,0.358,0.45,3,3,2,166,0
0.780783144313,1.07245800746,0.130298493252,0.272802484402,0.387,0.45,1,1,2,167,0
0.322823599514,0.169328308452,0.32178327377,1.03595632968,0.431,0.45,3,3,2,168,0
0.383199669168,0.193702562584,1.10073244506,0.344228665295,0.598,0.45,2,2,1,169,0
1.01281487789,0.4546798269,0.0919173930757,0.220412432568,0.601,0.45,0,0,1,170,0
0.271652878981,1.05343165911,0.361798106342,0.0970435296378,0.589,0.45,1,1,1,171,0
1.0213870371,0.263777116061,0.0125853340366,0.174692302007,0.507,0.45,0,0,1,172,0
0.326294440782,0.259393943382,1.0661890077,0.345380037411,0.457,0.45,2,2,1,173,0
0.988814319156,1.01842077494,0.0286587959057,0.146671016927,0.5,0.45,1,1,1,174,0
0.230619188317,0.406040507996,1.04994997418,0.232387127197,0.499,0.45,2,2,1,175,0
0.523827921484,0.282265317656,0.33258164356,1.06381568147,0.426,0.45,3,3,2,176,0
1.02608535214,0.476331091476,0.128629372252,0.11895047583,0.369,0.45,1,0,-1,177,0
0.175061147341,0.432058454384,0.0930917545215,1.03687883426,0.442,0.45,3,3,2,178,0
1.08665988153,0.3866243653,0.0180872370492,0.138839965354,0.484,0.45,0,0,1,179,0
0.285150875954,0.21428012803,0.0140731995278,1.10936891291,0.497,0.45,3,3,1,180,0
0.38392465284,0.228808793724,1.01359077227,0.3371552044,0.555,0.45,2,2,1,181,0
1.03978638326,0.278215833309,-0.0132632818656,0.161174011968,0.626,0.45,0,0,1,182,0
0.320250163855,1.16955704955,-0.0153087688086,0.0996411735287,0.496,0.45,1,1,1,183,0
1.0271208003,0.264753454599,0.272902622016,0.20036539377,0.613,0.45,0,0,1,184,0
0.0668575023486,0.359742212417,1.0275112709,0.304402046091,0.503,0.45,2,2,1,185,0
0.141081876161,1.00844803592,0.0625417457406,0.227723469101,0.448,0.45,1,1,2,186,0
0.130789688693,0.160436610564,0.201073351998,1.00198624145,0.376,0.45,3,3,2,187,0
1.06807897446,0.267577739176,0.0387171211865,0.0948430059317,0.344,0.45,1,0,-1,188,0
0.0584087513675,0.673459404966,1.12009006627,0.421411563066,0.45,0.45,2,2,1,189,0
0.500414282502,0.207604558924,0.65551117383,1.07268592444,0.45,0.45,3,3,1,190,0
1.09641560316,0.439837990101,0.187579802796,0.174219017613,0.417,0.45,0,0,2,191,0
0.271958752088,0.172602602274,0.3725434679,1.00868338169,0.358,0.45,3,3,2,192,0
0.563746312893,1.05493398427,0.0491783941853,0.131206773725,0.339,0.45,1,1,2,193,0
1.14084458828,0.330495469236,0.0190422675784,0.207278228717,0.344,0.45,0,0,2,194,0
0.345113079776,0.422675596481,1.12465572001,0.517168471766,0.355,0.45,2,2,2,195,0
1.02871710192,0.289241102912,0.102057164224,0.223476765998,0.338,0.45,0,0,2,196,0
1.06330602284,0.892154628939,0.0592521372045,0.335147075483,0.441,0.45,1,0,-1,197,0
0.293841021318,0.221836362426,1.08497253486,0.350703210048,0.446,0.45,2,2,2,198,0
0.0932184556383,0.215105031517,0.318766272246,1.13781434586,0.418,0.45,3,3,2,199,0
0.161192438175,0.354421534009,1.01427492716,0.458606359929,0.542,0.45,2,2,1,200,0
0.11173665632,1.16252985797,0.150478041406,0.174243912564,0.451,0.45,1,1,1,201,0
0.0962884089296,0.144719852733,0.0841348278925,1.19935940562,0.378,0.45,3,3,2,202,0
1.10233960342,0.337602817088,0.0402349657957,0.236727896395,0.346,0.45,0,0,2,203,0
0.27680338236,0.158377688209,1.05812601793,0.428696301175,0.359,0.45,3,2,-1,204,0
0.722173976696,1.09574449417,0.0239565392201,0.19524096168,0.424,0.45,1,1,2,205,0
0.0796638934378,0.224867280455,1.08687724427,0.365219821513,0.472,0.45,2,2,1,206,0
1.05072196293,0.316065588189,0.104339388648,0.13620432853,0.416,0.45,0,0,2,207,0
0.326739892142,0.262473255136,0.0431766354749,0.187996752448,0.7,0.45,1,-1,0,209,0
0.363758564565,1.28219696088,0.0365605966333,0.185330480379,0.0460000000001,0.45,0,1,-1,209,0
1.00320694533,0.185392683084,0.0174689788726,0.085148377311,1.09690034833e-13,0.45,2,0,-1,210,0
0.211933367717,0.0510164447898,0.0444273795604,1.17895646106,0.389,0.45,3,3,2,211,0
0.192264489518,0.0874639188932,1.06201114513,0.331987348991,0.432,0.45,2,2,2,212,0
0.192178982044,1.03570453642,0.350835002223,0.170489734577,0.305,0.45,1,1,2,213,0
1.0439646191,0.408796862878,0.133377092878,0.134407598031,0.293,0.45,3,0,-1,214,0
1.08605139501,0.545450481616,0.0179052162561,0.165127975778,0.437,0.45,0,0,2,215,0
0.345195417202,0.116744157325,0.0297411782657,1.15233379721,0.427,0.45,3,3,2,216,0
3.03309053134,1.54760454232,1.62755614637,1.27643627043,0.00800000000011,0.45,0,0,2,217,1
0.162725531543,1.02160504803,0.587080858728,0.283102207716,0.448,0.45,1,1,2,218,1
0.256647504393,0.07598539476,1.08257077205,0.355396010004,0.31,0.45,3,2,-1,219,1
0.162038131112,0.312312016427,1.13285989002,0.30826008442,0.383,0.45,2,2,2,220,1
0.149141204715,0.314052778654,0.328192305506,1.22949112514,0.376,0.45,3,3,2,221,1
1.05311368167,0.435891932072,0.21381821742,0.222365313112,0.363,0.45,1,0,-1,222,1
0.195871647288,0.697433086002,1.04665095715,0.547927940712,0.502,0.45,2,2,1,223,1
0.219239156199,1.01313239813,0.481926448655,0.599184695095,0.517,0.45,0,1,-1,224,1
0.152748361867,0.337715511541,1.04044713576,0.414735569808,0.436,0.45,2,2,2,225,1
0.180664045861,1.05207217619,0.262599730017,0.319238867191,0.525,0.45,1,1,1,226,1
1.12925984297,0.0635503956398,0.0264183628161,0.174808447338,0.429,0.45,0,0,2,227,1
0.131472455983,0.296285561549,0.169247758419,1.13277805001,0.282,0.45,3,3,2,228,1
1.02156325628,0.429655790147,0.0687787118105,0.225587961598,0.377,0.45,0,0,2,229,1
0.559316838921,1.08541860047,0.135430686984,0.206115926862,0.366,0.45,1,1,2,230,1
0.647280769753,0.283680209513,0.0835703439774,1.09552724544,0.306,0.45,3,3,2,231,1
0.088367707945,0.272148920452,0.129853639544,0.298522105134,0.7,0.45,2,-1,0,233,1
0.0920307833645,0.244323520703,1.07558074272,0.815079421119,0.174,0.45,3,2,-1,233,1
1.06929402591,0.45569425893,0.180025827562,0.374318974006,0.376,0.45,1,0,-1,234,1
0.116604877251,0.0997621770338,1.0469894178,0.705566767116,0.412,0.45,2,2,2,235,1
1.03266167712,0.506790528059,0.308433106827,0.530718103212,0.432,0.45,0,0,2,236,1
0.375984356852,0.169417746068,0.19007739383,1.11678937429,0.315,0.45,3,3,2,237,1
1.05186312159,0.186382491235,0.0772470564161,0.309523620621,0.385,0.45,0,0,2,238,1
0.608931725945,0.0638205985222,1.05107134209,0.398254965109,0.41,0.45,2,2,2,239,1
1.06223431345,0.0497862421792,0.0435307817311,0.467106001537,0.378,0.45,1,0,-1,240,1
1.1161171886,0.481025814124,0.0603398204474,0.337694658461,0.583,0.45,0,0,1,241,1
0.177311235273,0.0842881547341,0.0848170542313,1.11719148155,0.45,0.45,3,3,1,242,1
0.218512613856,0.0541555392869,1.14795294331,0.820344801823,0.497,0.45,2,2,1,243,1
0.220415837451,1.21061134712,0.200643389121,0.351455295921,0.514,0.45,1,1,1,244,1
0.159604446751,0.379980825581,1.05523701789,0.719178052587,0.472,0.45,2,2,1,245,1
0.132309123524,0.21910248286,0.226870085669,1.08935293709,0.342,0.45,3,3,2,246,1
1.03392298887,0.338671501665,0.0554165171896,0.298013159623,0.414,0.45,1,0,-1,247,1
0.116250225725,0.0917289820334,0.0334995615054,1.15113277811,0.416,0.45,3,3,2,248,1
1.18819842005,0.372713899237,0.0165588959724,0.299462302387,0.444,0.45,0,0,2,249,1
0.358176218557,0.314821074936,1.03456529496,0.510331478597,0.402,0.45,2,2,2,250,1
1.02049361847,0.744945712703,0.195074061096,0.327627444399,0.561,0.45,0,0,1,251,1
0.459487573746,1.07380554513,0.139106437806,0.437520469341,0.547,0.45,1,1,1,252,1
1.02644299022,0.134444457056,0.10310521087,0.335113748694,0.481,0.45,0,0,1,253,1
0.462190042969,0.149304784343,0.0184967918518,1.14074916363,0.342,0.45,3,3,2,254,1
0.690963055275,1.06341195118,0.0208416976423,0.241155055325,0.274,0.45,1,1,2,255,1
0.696174866766,0.0234595798923,1.09534603927,0.849610648042,0.427,0.45,2,2,2,256,1
0.450428497191,1.3369443967,0.0615811066857,0.190390011501,0.393,0.45,1,1,2,257,1
0.182584652484,0.311301073148,0.0328002438819,1.13917110427,0.316,0.45,3,3,2,258,1
0.19959440482,0.203307538521,1.06150137061,0.976339930695,0.436,0.45,2,2,2,259,1
0.148618787868,0.181596678797,0.0813492650559,1.00611916937,0.423,0.45,3,3,2,260,1
1.02786744148,0.256359832501,0.0544681911157,0.188649045782,0.381,0.45,0,0,2,261,1
0.605365059922,1.03328366997,0.298287435462,0.72171675866,0.391,0.45,1,1,2,262,1
1.09712623711,0.0469634340339,0.211705560067,0.300939757266,0.4,0.45,0,0,2,263,1
0.314714823134,0.113709629569,1.00167023237,0.361095183143,0.323,0.45,2,2,2,264,1
1.44304752532,0.0508757459501,0.0874359422745,0.26236481828,0.423,0.45,0,0,2,265,1
0.224773063166,0.0786362702088,1.0319931544,0.551902218544,0.581,0.45,2,2,1,266,1
0.403269959076,0.0441161696207,0.434599065593,1.16866833918,0.426,0.45,3,3,2,267,1
0.601138896198,1.15071274928,0.0770648432644,0.19309354711,0.444,0.45,1,1,2,268,1
0.296888249497,0.145755298112,0.232343851889,1.16471746055,0.421,0.45,3,3,2,269,1
0.399763093059,0.283382552625,1.0771638133,0.428865647347,0.391,0.45,2,2,2,270,1
0.521936927713,1.03538015344,0.189508914122,0.403003150633,0.381,0.45,1,1,2,271,1
1.17714803341,0.300197378493,0.0218950861451,0.253023393594,0.353,0.45,0,0,2,272,1
1.01460705929,0.149412293675,0.314194827507,0.410580079672,0.367,0.45,1,0,-1,273,1
0.146037696977,0.27974053222,1.08805897802,0.563465083841,0.367,0.45,2,2,2,274,1
1.06537552606,0.20533738349,0.167901064607,0.342984889011,0.452,0.45,0,0,1,275,1
0.260009327638,0.0722617932862,0.0809353051157,1.01146999397,0.311,0.45,3,3,2,276,1
1.05853608362,0.145494381731,0.155636126581,0.202958677284,0.338,0.45,0,0,2,277,1
0.608875803604,1.0138156108,0.241387941327,0.272405080729,0.405,0.45,1,1,2,278,1
0.324077230964,0.0488282057178,0.31763752896,1.03664226206,0.336,0.45,3,3,2,279,1
0.148845690299,0.129921659426,1.05752073029,0.838331363203,0.456,0.45,2,2,1,280,1
0.204786479942,0.0247785468923,0.0727579872929,1.25930043652,0.478,0.45,3,3,1,281,1
1.01511449668,0.171149382975,0.450529287444,0.29510780161,0.485,0.45,1,0,-1,282,1
0.0915346234862,0.0373929054314,1.14475636757,0.314889999633,0.476,0.45,2,2,1,283,1
1.02615459525,0.527436232897,0.312459324572,0.69011037266,0.571,0.45,0,0,1,284,1
1.06615738454,0.468408098929,0.163520620945,0.264615964797,0.213,0.45,2,0,-1,285,1
0.46011414036,0.0473081156014,1.07936665632,0.420500972457,0.124,0.45,1,2,-1,286,1
1.02527459491,0.170706346213,0.216858747102,0.191314230623,0.342,0.45,0,0,2,287,1
0.27268726796,0.276994906241,0.305127880534,1.06740547392,0.333,0.45,3,3,2,288,1
0.898037764503,1.00019580008,0.156614256979,0.308815714891,0.552,0.45,0,1,-1,289,1
0.43094982198,0.413094513464,1.07577542787,0.330747651514,0.542,0.45,1,2,-1,290,1
0.40940536295,0.445849311915,0.118533763322,1.00254116597,0.525,0.45,3,3,1,291,1
0.483152737503,0.228405290886,1.16882137156,0.28253278295,0.527,0.45,2,2,1,292,1
0.542145315517,0.250361934884,0.32897159795,1.13482656785,0.45,0.45,3,3,1,293,1
0.629367844384,1.08350337914,0.207993542179,0.182759935491,0.433,0.45,1,1,2,294,1
0.396155633181,0.233404447025,1.02566477324,0.454847766115,0.476,0.45,2,2,1,295,1
1.05510880867,0.263208968911,0.274927738005,0.193433550013,0.414,0.45,1,0,-1,296,1
1.10981930065,0.215421507683,0.110342731636,0.196945620005,0.41,0.45,0,0,2,297,1
0.20524422975,0.278409962978,0.360588923942,0.589663349838,0.7,0.45,3,-1,0,299,1
0.249594997121,0.216142444229,0.282964942865,1.10274761495,0.0930000000002,0.45,0,3,-1,299,1
0.15342356684,0.175871383995,1.0280713759,0.389732503213,0.471,0.45,2,2,1,300,1
0.185884858022,1.11725238015,0.177698029224,0.17666769246,0.418,0.45,0,1,-1,301,1
0.130264406539,0.0695921079088,1.01778868531,0.280889123011,0.449,0.45,2,2,2,302,1
0.569916423945,1.00046059588,0.269790136471,0.257624036476,0.422,0.45,1,1,2,303,1
0.151163558268,0.0666882394915,0.269789745153,1.15223556341,0.361,0.45,3,3,2,304,1
0.191225504415,0.212523502165,1.11409411164,0.345307785845,0.402,0.45,2,2,2,305,1
0.257855755175,0.158764699307,0.238993860675,1.04249531355,0.349,0.45,3,3,2,306,1
1.14439039014,0.222891821704,0.390211076039,0.216287272565,0.364,0.45,1,0,-1,307,1
1.23723260637,0.589150712298,0.142049294629,0.447424073946,0.52,0.45,0,0,1,308,1
0.123773061332,1.15607070849,0.121199375639,0.268347543678,0.429,0.45,1,1,2,309,1
0.0982430584295,0.165984217036,1.18449383644,0.372297033424,0.34,0.45,2,2,2,310,1
1.11033939992,0.298912734319,0.129648080821,0.221383088033,0.373,0.45,0,0,2,311,1
0.247307890776,0.188510898234,0.334607793348,1.0562647009,0.363,0.45,3,3,2,312,1
1.0400262303,0.263272110066,0.213767542057,0.291838000484,0.336,0.45,0,0,2,313,1
0.415594388948,1.1977306175,0.151772755512,0.210591135069,0.364,0.45,1,1,2,314,1
0.141976249818,0.147541395882,0.799938612792,1.15178210328,0.396,0.45,3,3,2,315,1
0.165536448547,0.162949899836,1.00214830719,0.318868690579,0.476,0.45,2,2,1,316,1
0.312704106269,1.11045670912,0.173723413218,0.219060947114,0.489,0.45,1,1,1,317,1
0.162560455757,0.176334206979,1.03172983791,0.584217695801,0.474,0.45,2,2,1,318,1
0.1824930796,0.0762537266888,0.231473688437,1.01266891232,0.386,0.45,3,3,2,319,1
1.11560224969,0.0570691555977,0.102072572748,0.183010905505,0.365,0.45,0,0,2,320,1
0.275275830193,0.0696027176506,0.12504100689,1.00291332767,0.324,0.45,3,3,2,321,1
0.788861659884,1.04731028734,0.063576190493,0.150312391781,0.404,0.45,1,1,2,322,1
1.18161370834,0.169397335776,0.0212908941551,0.404681245066,0.39,0.45,0,0,2,323,1
0.300935561317,0.0636320171354,1.00287415598,0.407338947251,0.355,0.45,2,2,2,324,1
1.09787067092,0.0521912820813,0.390533681353,0.173458114219,0.375,0.45,0,0,2,325,1
0.271140667424,0.0574306566899,0.659972778792,1.08292774271,0.382,0.45,3,3,2,326,1
0.127286197602,0.405135345741,1.00295937377,0.441861408339,0.456,0.45,2,2,1,327,1
0.164754387408,1.0942304964,0.13163202269,0.244649894875,0.466,0.45,1,1,1,328,1
0.130637512949,0.0872953301095,1.03209371525,0.337672299527,0.441,0.45,2,2,2,329,1
0.126736356329,0.201079478813,0.194714185306,1.05932537356,0.353,0.45,3,3,2,330,1
1.14891473686,0.420393792397,0.0450432032205,0.170016480409,0.441,0.45,1,0,-1,331,1
1.07131509844,0.138762602672,0.0213791985966,0.19282633826,0.489,0.45,0,0,1,332,1
0.236335754297,1.12699105123,0.0210766803007,0.180488104361,0.615,0.45,1,1,1,333,1
0.101721580085,0.111045738497,0.0225383008668,1.06041583345,0.438,0.45,3,3,2,334,1
1.01817647643,0.229285742388,0.0386394288964,0.192703054407,0.391,0.45,0,0,2,335,1
0.120023152809,0.112988396635,1.11854773345,0.468914820782,0.42,0.45,2,2,2,336,1
1.11021324452,0.136494027683,0.179327648477,0.200467557552,0.379,0.45,0,0,2,337,1
0.387350832102,0.0780888058352,0.0937727002269,1.01042034948,0.375,0.45,3,3,2,338,1
0.593672380505,0.0667018424393,1.09202819564,0.360691261501,0.471,0.45,2,2,1,339,1
0.0919035272539,0.417424385756,0.124917698374,0.223436636177,0.7,0.45,1,-1,0,341,1
0.0802229958017,1.02157485322,0.0790314692095,0.191852559966,0.1,0.45,3,1,-1,341,1
0.103587385244,1.06703376926,0.0302079453068,0.227481198007,0.364,0.45,1,1,2,342,1
0.172240585619,0.407980292943,1.01333750632,0.322571882282,0.455,0.45,2,2,1,343,1
1.08408836032,0.132715505881,0.0242554995987,0.254781736817,0.364,0.45,0,0,2,344,1
0.413623258792,1.13908983783,0.225326599979,0.299145130868,0.507,0.45,1,1,1,345,1
1.19223840541,0.188780169226,0.0125812743669,0.137322004576,0.45,0.45,0,0,1,346,1
0.276787876215,0.167427680008,0.314833117319,1.02121225426,0.393,0.45,2,3,-1,347,1
0.267196431701,0.131635306375,0.351825711142,1.12034485492,0.503,0.45,3,3,1,348,1
1.10269113326,0.095471207047,0.070354923329,0.172334412538,0.431,0.45,0,0,2,349,1
0.240939518936,0.103077120629,1.05906709211,0.303911076998,0.378,0.45,2,2,2,350,1
0.233237524987,0.0886462945718,0.272092396195,1.02264305098,0.328,0.45,3,3,2,351,1
0.420419244834,1.03368956174,0.1447400617,0.128376262843,0.368,0.45,1,1,2,352,1
0.163135680936,0.210461678274,1.1047440892,0.279094788081,0.304,0.45,2,2,2,353,1
1.07086115055,0.26413514577,0.117345936132,0.200106739598,0.314,0.45,1,0,-1,354,1
0.18312655741,1.00677895388,0.0539698440806,0.20176076907,0.452,0.45,3,1,-1,355,1
0.127419162453,0.312125982532,1.00058909418,0.2528827248,0.446,0.45,2,2,2,356,1
1.17587638287,0.250876014342,0.211569373311,0.232650674521,0.412,0.45,0,0,2,357,1
0.115195504173,0.0759066911883,0.241688081501,1.12271575975,0.374,0.45,3,3,2,358,1
1.28359119494,0.0655060715238,0.0788658325673,0.112694608914,0.388,0.45,0,0,2,359,1
0.236126555224,1.06680105643,0.130211829554,0.168508732103,0.482,0.45,1,1,1,360,1
1.08882991624,0.231003452445,0.0564319479161,0.163319399932,0.545,0.45,0,0,1,361,1
0.173015457579,0.134781876475,0.127245537417,1.03697339629,0.495,0.45,3,3,1,362,1
0.242133460499,1.07246246621,0.06306419598,0.20902959314,0.512,0.45,1,1,1,363,1
0.122124206556,0.142012414003,1.1579362078,0.34832083004,0.607,0.45,2,2,1,364,1
0.164322614644,1.00672880491,0.147621540204,0.157031095113,0.483,0.45,1,1,1,365,1
0.120183651982,0.185395475414,0.235551807139,1.1384187992,0.368,0.45,3,3,2,366,1
0.179173349097,0.207146975948,0.410586687495,1.14091736715,0.409,0.45,2,3,-1,367,1
0.124997163649,0.193480127647,0.306120764859,1.08475672344,0.411,0.45,3,3,2,368,1
1.18995075441,0.219674080142,0.126875291247,0.112144051035,0.423,0.45,0,0,2,369,1
0.116013064315,1.06157506161,0.33316261567,0.327170495607,0.437,0.45,2,1,-1,370,1
1.17317791949,0.482762467813,0.0652868243019,0.197809487982,0.461,0.45,0,0,1,371,1
0.109964576629,0.128784638785,0.318110409187,0.334461706316,0.7,0.45,1,-1,0,373,1
1.13099299002,0.141294930027,0.306354216236,0.271908502279,0.109,0.45,0,0,2,373,1
0.130392707918,0.0821969258254,0.647738894619,1.07051818896,0.417,0.45,3,3,2,374,1
0.22700377949,1.00809956798,0.059485805994,0.224875386889,0.445,0.45,1,1,2,375,1
0.136266980602,0.0581903848509,1.10220937386,0.574270912273,0.458,0.45,2,2,1,376,1
0.138227827843,0.0331280751309,0.397167660055,1.08064870285,0.422,0.45,3,3,2,377,1
0.131276899578,0.164339504019,1.10462764322,0.172377874741,0.431,0.45,2,2,2,378,1
0.201456683503,1.32920111777,0.160030430626,0.18675692876,0.412,0.45,1,1,2,379,1
0.107701692651,0.26590874688,1.00910534459,0.931350082962,0.417,0.45,3,2,-1,380,1
1.04188945836,0.200967912516,0.0464808945763,0.200120586311,0.404,0.45,0,0,2,381,1
0.10509944542,0.0432387943425,1.12411773713,0.374813332747,0.372,0.45,2,2,2,382,1
1.19631714143,0.114657203567,0.145919584665,0.156242559579,0.402,0.45,0,0,2,383,1
0.0838587554049,1.04617046452,0.148298365432,0.214636410867,0.475,0.45,1,1,1,384,1
1.11274245243,0.253937940536,0.0278373444912,0.184930104,0.44,0.45,0,0,2,385,1
0.1029155903,0.164485061272,0.107829921229,1.12074556626,0.379,0.45,3,3,2,386,1
0.216391313131,1.01387265938,0.05491630252,0.175521793848,0.34,0.45,1,1,2,387,1
0.102262532913,0.0575289486328,1.09025268363,0.571153189582,0.459,0.45,2,2,1,388,1
0.105637484598,1.13655978335,0.10339493187,0.147089231394,0.443,0.45,1,1,2,389,1
0.104189533829,0.210552991642,0.815526033695,1.00335864516,0.459,0.45,3,3,1,390,1
0.104164436158,1.06329204198,0.0290122057875,0.0945354732091,0.403,0.45,2,1,-1,391,1
1.32530735291,0.190281948163,0.0265378829842,0.134268064657,0.446,0.45,0,0,2,392,1
0.108661498087,0.0530843475736,1.08800838158,0.255470684467,0.383,0.45,2,2,2,393,1
0.109771951218,0.0515413015777,0.25629701504,1.13515761657,0.31,0.45,3,3,2,394,1
1.18912175255,0.424468262907,0.382605281341,0.227637652752,0.392,0.45,0,0,2,395,1
0.115438995636,1.16302934887,0.111357004503,0.0929657366949,0.415,0.45,1,1,2,396,1
1.0624912854,0.377360503177,0.158657854511,0.264866264633,0.451,0.45,0,0,1,397,1
0.155295517726,0.0983272834982,0.170044303576,1.09369505212,0.389,0.45,3,3,2,398,1
0.246378431247,1.06367538667,0.258339015198,0.0907748099132,0.403,0.45,1,1,2,399,1
0.155680520445,0.0985068358548,1.03851990537,0.227700148943,0.36,0.45,2,2,2,400,1
0.0885933855029,1.02403629605,0.0415249413249,0.078996924548,0.373,0.45,1,1,2,401,1
0.0902588164699,0.188028951189,0.0258205283729,1.16241610204,0.356,0.45,3,3,2,402,1
0.0941219629157,0.297407880069,1.20325502013,0.232311803196,0.403,0.45,2,2,2,403,1
1.25262281542,0.695379147472,0.047912975879,0.202802882785,0.377,0.45,0,0,2,404,1
0.127859258122,1.00056015806,0.715807068144,0.296620807174,0.489,0.45,1,1,1,405,1
0.12393762594,1.13172930823,0.0377497097208,0.10242764254,0.0620000000002,0.45,0,1,-1,406,1
0.100008433633,0.0688812105947,1.15986511464,0.36794617291,0.366,0.45,2,2,2,407,1
0.0974871530922,0.131048774104,0.219975469456,1.08979855914,0.332,0.45,3,3,2,408,1
1.12619372673,0.23506963724,0.0595728428305,0.126964436704,0.401,0.45,0,0,2,409,1
0.0962842967482,0.0463148569251,1.12903554845,0.28030650994,0.402,0.45,2,2,2,410,1
0.158508849785,0.0190160594314,0.150163716839,1.07220203018,0.391,0.45,3,3,2,411,1
0.256408323546,1.03309696155,0.0998679449897,0.141551338944,0.333,0.45,1,1,2,412,1
0.220098129743,0.0706873688545,0.0921779283404,1.17523794806,0.459,0.45,3,3,1,413,1
0.14797207646,0.177656038245,1.13123241158,0.416454634236,0.57,0.45,2,2,1,414,1
0.11291425215,1.07259594547,0.0236189211386,0.0967370006115,0.42,0.45,1,1,2,415,1
0.156314856192,0.176639064106,1.10745765731,0.313034689384,0.453,0.45,2,2,1,416,1
1.08692195505,0.143203368091,0.0726584621958,0.134835908918,0.417,0.45,0,0,2,417,1
0.17736748525,0.0735241854411,1.00800534208,0.459485215241,0.556,0.45,3,2,-1,418,1
1.17237986024,0.0729954680396,0.0330867564362,0.218764660859,0.511,0.45,0,0,1,419,1
0.110497697448,1.16320758528,0.0793118258213,0.136769763417,0.643,0.45,1,1,1,420,1
1.21989596319,0.157790743332,0.0703903451822,0.258088636662,0.526,0.45,0,0,1,421,1
0.106809890596,0.0348103460064,1.1946440992,0.496985204124,0.502,0.45,2,2,1,422,1
0.172932262733,1.10288746423,0.0343397996621,0.309952082037,0.47,0.45,1,1,1,423,1
0.1093893939,0.0857723065121,0.0232985822389,1.00975421042,0.371,0.45,3,3,2,424,1
0.136513350468,0.0779597306854,1.02400346833,0.476725900239,0.465,0.45,2,2,1,425,1
0.11221994667,0.0744091164195,0.0172942763062,1.02040383964,0.608,0.45,3,3,1,426,1
0.116866043572,1.0990440046,0.0230480866609,0.114327746808,0.46,0.45,1,1,1,427,1
1.0595831359,0.0679497909154,0.0233688322046,0.119516873249,0.316,0.45,0,0,2,428,1
1.10433697107,0.0411576680462,0.588185877178,0.284686365361,0.393,0.45,1,0,-1,429,1
0.103429536719,0.0915554853306,1.13128394007,0.417536984265,0.378,0.45,2,2,2,430,1
1.40046822735,0.096814210118,0.112212324036,0.18648266004,0.376,0.45,0,0,2,431,1
0.169479759345,0.048901431261,0.402892557731,1.27033446418,0.338,0.45,3,3,2,432,1
1.18227248222,0.156623983582,0.073657163347,0.0767720967683,0.35,0.45,0,0,2,433,1
1.90286639751,1.89116709418,2.4158929388,2.13237463622,0.00700000000023,0.45,0,2,-1,434,2
0.14791242498,0.0547972770977,0.494200031504,1.02531838017,0.379,0.45,3,3,2,435,2
0.173773511032,1.05299781772,0.396506221435,0.301636129067,0.375,0.45,1,1,2,436,2
0.235533724241,0.291030697005,1.08407976449,0.385204232305,0.29,0.45,2,2,2,437,2
0.279541370411,1.03991758202,0.161505065642,0.285295735748,0.347,0.45,1,1,2,438,2
0.120199121571,0.216329227229,0.819992126834,1.11085457692,0.355,0.45,3,3,2,439,2
0.104696918074,0.208252580076,1.14533259495,0.338250425306,0.391,0.45,2,2,2,440,2
1.15187324081,0.0639087609881,0.137975035849,0.215090323967,0.354,0.45,0,0,2,441,2
0.323565343615,1.0666320925,0.173562401782,0.219824127887,0.385,0.45,1,1,2,442,2
1.19335675794,0.273050727277,0.270755905999,0.222891443689,0.373,0.45,0,0,2,443,2
0.280761901273,0.199162925739,1.06086510287,0.277753077247,0.412,0.45,2,2,2,444,2
0.436304141759,0.177086249168,0.2158504869,1.03033437308,0.335,0.45,3,3,2,445,2
1.11646251075,0.3722745821,0.136334608907,0.197692326173,0.324,0.45,0,0,2,446,2
0.404432274572,0.272341835436,0.0781230889302,0.418502665658,0.7,0.45,3,-1,0,448,2
0.407271598904,0.23991141731,0.068436430069,1.11295423802,0.0360000000002,0.45,2,3,-1,448,2
0.120226151038,1.12856613351,0.148961150497,0.209647448158,0.345,0.45,1,1,2,449,2
0.161608428879,0.339282483503,1.04372530912,0.622727878025,0.457,0.45,2,2,1,450,2
0.237574791718,0.0812446669175,0.289118651059,1.01692958757,0.45,0.45,3,3,1,451,2
1.06025267759,0.220851782415,0.237450437993,0.146555428102,0.369,0.45,1,0,-1,452,2
0.106724169616,0.0785937872191,0.210153472017,1.34135889352,0.429,0.45,3,3,2,453,2
1.11351265382,0.269229176195,0.160910928261,0.250785379649,0.462,0.45,0,0,1,454,2
0.112680213626,0.0723178501683,1.01093387748,0.326919864113,0.373,0.45,2,2,2,455,2
1.16457713074,0.0691279083646,0.290791628302,0.217008873119,0.481,0.45,0,0,1,456,2
0.128869869026,1.06775218508,0.170872003238,0.276233956497,0.508,0.45,1,1,1,457,2
1.05554719014,0.219442856902,0.0335572313857,0.296662553426,0.419,0.45,0,0,2,458,2
0.125902259257,1.1969538981,0.0244421192409,0.17841352022,0.425,0.45,1,1,2,459,2
0.109576918245,0.478498385207,1.16546990028,0.277463007373,0.346,0.45,2,2,2,460,2
0.359215443726,0.156363673585,0.310998846508,1.05279439241,0.387,0.45,3,3,2,461,2
0.182388656664,0.210977592321,1.00685687497,0.228110446205,0.406,0.45,2,2,2,462,2
0.246394584945,1.015160747,0.36823248641,0.292672577813,0.402,0.45,1,1,2,463,2
0.428315296062,0.175011548098,0.305430667863,1.03745010434,0.422,0.45,3,3,2,464,2
1.073544333,0.282480500004,0.202839164074,0.295752681452,0.402,0.45,0,0,2,465,2
0.178036497896,0.272725469755,1.08064026125,0.59195554411,0.354,0.45,2,2,2,466,2
1.05486911572,0.108465916614,0.0609905645128,0.480524828393,0.338,0.45,0,0,2,467,2
0.463237100086,0.169595685633,0.259123290717,1.00767046704,0.311,0.45,3,3,2,468,2
0.783929187313,1.04277827132,0.101536097131,0.160344971811,0.353,0.45,1,1,2,469,2
1.04196147512,0.226851999124,0.279900954453,0.351073067854,0.47,0.45,0,0,1,470,2
0.196966997473,0.0780357257575,0.0598542388394,1.11770100644,0.402,0.45,3,3,2,471,2
0.172054856097,0.105537070971,1.13048275323,0.307305472229,0.464,0.45,2,2,1,472,2
0.169398328569,1.10223531065,0.0735159426842,0.165579522435,0.41,0.45,1,1,2,473,2
0.145756739143,0.0762060778019,0.0183669959909,1.20290063209,0.368,0.45,3,3,2,474,2
0.205573969009,1.03231226906,0.0677789048836,0.100468589055,0.365,0.45,1,1,2,475,2
0.108070419735,0.194521869235,1.1859381238,0.298471178931,0.318,0.45,2,2,2,476,2
0.148775242085,0.569204145192,0.249817181464,1.13320688825,0.372,0.45,3,3,2,477,2
1.07167128306,0.368369647064,0.059356516846,0.166535330388,0.328,0.45,0,0,2,478,2
0.710771041479,1.25224859204,0.147331974858,0.284222145296,0.4,0.45,1,1,2,479,2
1.18757647592,0.126301832751,0.14071577233,0.268103788961,0.386,0.45,0,0,2,480,2
0.146240629458,0.251796841512,1.04705087199,0.306256625487,0.38,0.45,2,2,2,481,2
1.18623869053,0.158447034516,0.163889717942,0.232573245746,0.351,0.45,0,0,2,482,2
0.172526417491,0.10565224759,0.338778413054,1.03515579107,0.311,0.45,3,3,2,483,2
0.281055926776,0.0990904142177,1.07456840683,0.433706524276,0.401,0.45,2,2,2,484,2
0.199627062986,1.06586869593,0.30170856645,0.282150942475,0.399,0.45,1,1,2,485,2
0.139348013277,0.230267022147,1.13593362224,0.666591798471,0.413,0.45,2,2,2,486,2
0.13062641354,0.0616683037728,0.238080855805,1.199482581,0.345,0.45,3,3,2,487,2
0.249905687858,1.03438566589,0.215130872308,0.166430588687,0.373,0.45,1,1,2,488,2
0.390387100597,0.237437138239,0.152680990721,0.458942340624,0.7,0.45,3,-1,0,490,2
0.364522899453,0.136882098657,0.0483625988123,1.01047868941,0.0810000000003,0.45,0,3,-1,490,2
0.248350446755,0.0775416008385,0.0292254449578,1.05338281064,0.256,0.45,2,3,-1,491,2
0.279237846065,1.04602178878,0.507876027019,0.228238650236,0.348,0.45,0,1,-1,492,2
0.138198689323,0.0321184947043,1.11344710527,0.299146880519,0.442,0.45,1,2,-1,493,2
1.22589960166,0.151728971646,0.0187103287757,0.159896960676,0.483,0.45,0,0,1,494,2
0.302782915465,0.128585719736,0.0500337358165,1.05645368095,0.449,0.45,3,3,2,495,2
1.087826833,0.298493542907,0.412709018448,0.580583981545,0.475,0.45,1,0,-1,496,2
0.121864980892,0.0242804130748,1.16306546088,0.486441659996,0.411,0.45,2,2,2,497,2
0.151483873576,0.25838017345,0.399445012632,1.06712712714,0.335,0.45,3,3,2,498,2
0.158302871011,1.00608394996,0.257696418252,0.183252309256,0.382,0.45,2,1,-1,499,2
0.12050940918,1.14719855158,0.0475685074423,0.12696002975,0.35,0.45,1,1,2,500,2
1.01085352985,0.171311872223,0.0552642210772,0.185486155187,0.303,0.45,0,0,2,501,2
0.129913480752,1.0152935669,0.11188864391,0.296665196439,0.429,0.45,1,1,2,502,2
0.123736410667,0.0907637188506,0.268087474324,1.0182196775,0.374,0.45,3,3,2,503,2
1.07486536814,0.192191749489,0.176748382834,0.166322515973,0.433,0.45,0,0,2,504,2
0.134809675075,0.113562180106,1.06350221572,0.345778334107,0.429,0.45,2,2,2,505,2
1.07947908777,0.0578491431075,0.261366616975,0.184066348434,0.358,0.45,0,0,2,506,2
0.258786199287,0.0407407318498,0.122732157748,1.02710971502,0.374,0.45,3,3,2,507,2
0.175100624554,0.0796060833453,1.01620506602,0.378850913807,0.5,0.45,2,2,1,508,2
0.144753364603,1.16811752137,0.268266189005,0.169087313461,0.466,0.45,1,1,1,509,2
0.139199708829,0.078569362743,0.229529656875,1.03893669014,0.368,0.45,3,3,2,510,2
0.146017356561,1.04801756161,0.301171015245,0.167672098262,0.374,0.45,1,1,2,511,2
0.13720848693,0.662102913062,1.03639673396,0.338517259857,0.43,0.45,2,2,2,512,2
1.0129140826,0.0421999737898,0.0499494283062,0.195295850716,0.353,0.45,0,0,2,513,2
0.130620158854,0.106469245315,1.0106405034,0.222080703386,0.686,0.45,2,2,1,514,2
0.127683279936,0.0562801946437,0.44200315615,1.10712270594,0.471,0.45,3,3,1,515,2
1.22119141317,0.0982629592316,0.12796349732,0.177146684366,0.416,0.45,0,0,2,516,2
0.126527837893,1.0663276292,0.244040656273,0.313506112191,0.504,0.45,1,1,1,517,2
1.08223754514,0.104723510738,0.0245552557929,0.136266699752,0.407,0.45,0,0,2,518,2
0.133666154839,0.160943709273,1.01255778289,0.32180342013,0.396,0.45,1,2,-1,519,2
0.129302253938,0.112501478264,0.0608607204047,1.14743901007,0.428,0.45,3,3,2,520,2
0.132632863347,0.193942692266,1.17084949906,0.813650344037,0.462,0.45,2,2,1,521,2
0.161961629643,1.01189749637,0.0992680367843,0.209368933758,0.36,0.45,1,1,2,522,2
0.135391863291,0.269243674532,1.03695910495,0.675687795711,0.455,0.45,2,2,1,523,2
0.100452170431,0.0992347301657,0.121140127247,1.10241573393,0.543,0.45,3,3,1,524,2
0.324576374433,1.06756056172,0.0454268733101,0.131681710162,0.515,0.45,0,1,-1,525,2
0.133570285915,0.10954335126,1.22498745149,0.386783517965,0.431,0.45,2,2,2,526,2
1.14279677624,0.24038632533,0.0904966635944,0.233682658792,0.44,0.45,0,0,2,527,2
0.556345640509,0.0428417686109,0.118338533274,1.13787447543,0.38,0.45,3,3,2,528,2
0.382526256047,1.00487617329,0.0705430080826,0.119722780339,0.352,0.45,1,1,2,529,2
1.30711506087,0.0573928017808,0.200883901381,0.248478444718,0.41,0.45,0,0,2,530,2
0.399316148677,0.0433078123455,1.08628814358,0.26337014296,0.353,0.45,2,2,2,531,2
0.152200524266,0.0239938824019,0.222924973452,1.21593755379,0.301,0.45,3,3,2,532,2
0.165663631909,1.00779802401,0.136131282544,0.130893446308,0.298,0.45,1,1,2,533,2
0.16516818339,0.0710673785206,1.05810199867,0.478733363409,0.393,0.45,2,2,2,534,2
0.169557951322,1.02846693392,0.114382370696,0.213484134451,0.432,0.45,1,1,2,535,2
0.130832284171,0.0515019773534,0.0849693995398,1.05083155317,0.371,0.45,3,3,2,536,2
0.135616351313,0.148783596753,1.09531421637,0.49400727691,0.472,0.45,2,2,1,537,2
1.35748026105,0.045883193102,0.139481417774,0.205547622349,0.357,0.45,0,0,2,538,2
0.141823492296,0.0725403010029,0.797371017839,1.18939127316,0.387,0.45,3,3,2,539,2
1.03002597228,0.49287166047,0.0344895727667,0.202228161994,0.454,0.45,0,0,1,540,2
0.115512307531,1.13448046922,0.109584018906,0.269717905909,0.576,0.45,1,1,1,541,2
1.17457209085,0.168008133083,0.0390306240422,0.22830766472,0.412,0.45,0,0,2,542,2
0.133415976996,0.0366926289653,1.09279521292,0.315438970499,0.267,0.45,2,2,2,543,2
0.300344517628,1.12896992544,0.0384272328426,0.41140781532,0.378,0.45,1,1,2,544,2
0.0796098021973,0.149246235555,0.0698733343015,1.00187037671,0.354,0.45,3,3,2,545,2
0.155581914373,0.116813693769,1.02722692366,0.291597265425,0.396,0.45,2,2,2,546,2
0.226404241245,0.111829682132,0.470185196723,1.07708921572,0.426,0.45,3,3,2,547,2
1.09670538035,0.262981236674,0.176934854959,0.212316681641,0.408,0.45,1,0,-1,548,2
1.23715637412,0.0469479183218,0.0112287841428,0.200004516301,0.356,0.45,0,0,2,549,2
0.0981647004102,0.101509343071,0.629643936769,1.08790720885,0.37,0.45,3,3,2,550,2
1.28386972311,0.281289232132,0.0318798284453,0.200522770312,0.374,0.45,0,0,2,551,2
0.293983484094,1.00985895942,0.0882868054335,0.344622100959,0.411,0.45,1,1,2,552,2
0.254990321438,0.0464317008047,1.14638177738,0.520979458391,0.331,0.45,2,2,2,553,2
1.16317377083,0.159121036726,0.032322975705,0.204593150782,0.367,0.45,0,0,2,554,2
0.117629020371,0.0933889364615,1.0127666683,0.348023430675,0.338,0.45,2,2,2,555,2
0.194632399109,0.0359065473253,0.811250908956,1.00783537105,0.397,0.45,3,3,2,556,2
1.33046058471,0.0465605999822,0.0335597221525,0.0648603273987,0.34,0.45,1,0,-1,557,2
0.131353401545,0.0580334248955,1.07510619478,0.284781156437,0.323,0.45,2,2,2,558,2
0.244537300181,1.05472178958,0.152003348153,0.256981732067,0.399,0.45,1,1,2,559,2
0.170872634805,0.059944029881,0.304746604262,1.04438107669,0.441,0.45,3,3,2,560,2
1.05248391728,0.165177834522,0.205572871551,0.309267798863,0.407,0.45,0,0,2,561,2
0.157798860252,0.106386331697,0.145330908971,1.05752639375,0.354,0.45,3,3,2,562,2
0.178072284892,0.0849659209021,1.05649655692,0.282971284468,0.392,0.45,2,2,2,563,2
1.04196920614,0.347978905636,0.0243969692572,0.271659702135,0.52,0.45,0,0,1,564,2
0.354776888438,1.11529749978,0.0320669576376,0.305991844252,0.637,0.45,1,1,1,565,2
0.582862852549,0.0698704120726,0.0385658898841,0.11704452768,0.7,0.45,0,-1,0,567,2
1.07146709225,0.0826381973729,0.0341288917961,0.153688550276,0.0920000000003,0.45,2,0,-1,567,2
0.546814211932,1.04054167659,0.295876475064,0.232988502807,0.47,0.45,1,1,1,568,2
0.258609031114,0.311460993354,0.829426195431,1.13770914969,0.374,0.45,3,3,2,569,2
0.688482306541,0.429282030329,1.26851400131,0.420700513105,0.53,0.45,2,2,1,570,2
0.4646351649,0.192010720038,0.50083106458,1.08242895707,0.608,0.45,3,3,1,571,2
0.45583312532,1.28320094638,0.300081772311,0.0976297333123,0.47,0.45,1,1,1,572,2
1.10346467768,0.106155295737,0.128531396252,0.0946412012506,0.315,0.45,0,0,2,573,2
1.09909822665,0.135872957827,0.811357054739,0.2289642412,0.385,0.45,1,0,-1,574,2
0.175464402665,1.23786168978,1.02897512868,0.245175125017,0.343,0.45,2,1,-1,575,2
1.09873243363,0.0404296157637,0.310220961794,0.154036519705,0.349,0.45,0,0,2,576,2
0.308925770078,0.146885735601,0.236109422244,1.05809093925,0.328,0.45,3,3,2,577,2
1.00874267629,0.30469187245,0.539173517268,0.174874294586,0.43,0.45,0,0,2,578,2
0.352931739184,0.0714804084864,1.18948446452,0.28155603427,0.375,0.45,3,2,-1,579,2
0.167866830321,0.112813573849,1.02057693296,0.258430770768,0.509,0.45,1,2,-1,580,2
0.0899436653694,0.0651583147565,1.07739925598,0.306023431139,0.404,0.45,2,2,2,581,2
0.108757312525,0.047673287822,0.123347559441,1.12072589618,0.412,0.45,3,3,2,582,2
0.289548496088,0.0840614955914,0.214359621854,1.06722744042,0.47,0.45,2,3,-1,583,2
0.533064272433,1.00636812823,0.43756309961,0.135693756108,0.453,0.45,1,1,1,584,2
1.12076489797,0.252411406533,0.146911818774,0.0906546523115,0.335,0.45,0,0,2,585,2
0.315699629833,0.126906613438,1.10040238663,0.319947798226,0.29,0.45,2,2,2,586,2
0.361787047193,1.21403621338,0.2941746267,0.175630349625,0.425,0.45,0,1,-1,587,2
1.26630220596,0.151825094994,0.342763788883,0.239999470142,0.503,0.45,1,0,-1,588,2
0.147539472866,0.100184325367,0.113474937872,1.04348092071,0.412,0.45,3,3,2,589,2
1.04246976391,0.168221812672,0.101807614496,0.103765340895,0.442,0.45,0,0,2,590,2
0.242691265472,0.0787762627701,1.03414242892,0.307448703762,0.454,0.45,2,2,1,591,2
0.348089047019,0.0874319385628,0.331542214855,1.00581947281,0.384,0.45,3,3,2,592,2
0.541049029295,1.09629497875,0.14519084862,0.16547192962,0.296,0.45,1,1,2,593,2
1.03259158291,0.113488509219,0.0454546245999,0.177093494401,0.354,0.45,3,0,-1,594,2
0.183298878963,0.0558578122453,0.598749498237,0.279376418046,0.7,0.45,2,-1,0,596,2
0.165200582961,0.0551921711483,1.01443818844,0.2910913066,0.0280000000003,0.45,1,2,-1,596,2
1.01363240999,0.984463782789,0.172545052951,0.127502388373,0.00500000000032,0.45,2,0,-1,597,2
1.17925802717,0.0270009995176,0.0926338824498,0.110286711208,0.437,0.45,0,0,2,598,2
0.10535691568,0.0586117730774,0.646710940735,1.08866408581,0.402,0.45,3,3,2,599,2
1.11085011343,0.0808355008244,0.0975554223311,0.090176276368,0.413,0.45,0,0,2,600,2
0.143430748337,1.17849399391,0.111483878821,0.17396485751,0.436,0.45,1,1,2,601,2
1.1917183829,0.183158690253,0.12869764883,0.219235652189,0.476,0.45,0,0,1,602,2
0.138130299729,1.05591482927,0.222171693591,0.292315713901,0.528,0.45,1,1,1,603,2
0.124004308191,0.1239244309,0.149564339879,0.902095221408,0.7,0.45,3,-1,0,605,2
0.123818527446,0.122734981716,0.15743431329,1.18923757366,0.0130000000003,0.45,2,3,-1,605,2
0.117075846444,0.0522631628687,0.371395482293,1.06538530166,0.439,0.45,3,3,2,606,2
0.196016821229,1.11994526201,0.0862542019438,0.146934926642,0.441,0.45,1,1,2,607,2
0.233046480604,0.28806887852,1.05451276805,0.245057730258,0.445,0.45,2,2,2,608,2
1.12938766513,0.281873223336,0.21671908601,0.140507350385,0.424,0.45,0,0,2,609,2
0.14635690619,0.129858018709,1.03691738089,0.16012467817,0.409,0.45,2,2,2,610,2
0.213311515094,1.04244489264,0.242565330999,0.13553253897,0.438,0.45,1,1,2,611,2
1.1595954402,0.181876232794,0.157763022472,0.15800731416,0.425,0.45,0,0,2,612,2
0.247855845841,0.124819540528,0.350875767657,1.00390862571,0.429,0.45,3,3,2,613,2
1.20763252198,0.254841085193,0.241347222001,0.190118740069,0.379,0.45,0,0,2,614,2
0.368083371861,0.117992006387,1.00796759927,0.312957457386,0.345,0.45,3,2,-1,615,2
0.286682667099,1.14056650634,0.17876482703,0.156258669557,0.387,0.45,1,1,2,616,2
0.266119514624,0.207690786637,1.00225901405,0.250728277503,0.435,0.45,2,2,2,617,2
0.651770184189,1.12878825579,0.203441535424,0.108563120459,0.428,0.45,1,1,2,618,2
0.297891549319,0.098991604505,0.215368505366,1.01090472378,0.477,0.45,3,3,1,619,2
0.130017633192,0.0740535431086,1.03784157396,0.2475761191,0.547,0.45,2,2,1,620,2
0.191469842754,0.216541811289,0.282141764974,1.03583528941,0.555,0.45,3,3,1,621,2
1.19148132201,0.338789207609,0.18975449628,0.112600787607,0.507,0.45,0,0,1,622,2
0.126953310413,0.095496753963,1.06577081152,0.219527029229,0.427,0.45,2,2,2,623,2
1.12159297604,0.102358001946,0.114388903748,0.168402827726,0.35,0.45,0,0,2,624,2
1.23484173667,0.136929536257,0.289309791849,0.196235658361,0.368,0.45,1,0,-1,625,2
1.43284012745,0.177457562587,0.175639355902,0.248146759235,0.461,0.45,0,0,1,626,2
0.259726362106,0.082533636574,1.26327817171,0.307640110047,0.389,0.45,2,2,2,627,2
0.369410750548,0.0708863840848,0.20088776434,1.06868096214,0.328,0.45,3,3,2,628,2
0.424041994441,1.03713824953,0.130389927164,0.111962415794,0.312,0.45,1,1,2,629,2
0.315897338716,0.0998095996669,1.10811133043,0.235314437757,0.295,0.45,2,2,2,630,2
0.631967852463,1.45621511145,0.271668580681,0.124554308188,0.354,0.45,1,1,2,631,2
0.128058859531,0.133768030143,1.22501748353,0.19449868029,0.342,0.45,3,2,-1,632,2
1.25881762129,0.276270456527,0.172242640004,0.142246813384,0.365,0.45,0,0,2,633,2
0.261205234646,1.14945276258,0.194952478598,0.177981028177,0.411,0.45,1,1,2,634,2
1.327773819,0.132691615716,0.174310858642,0.120410089669,0.41,0.45,0,0,2,635,2
0.253081455604,0.0638636074395,0.125759031732,1.17847515907,0.423,0.45,3,3,2,636,2
0.152835697205,0.104942206493,1.02095915912,0.252525781865,0.425,0.45,2,2,2,637,2
1.20994641525,0.161276143332,0.249323151707,0.153196843052,0.372,0.45,0,0,2,638,2
0.209471724289,0.0918379616237,1.02716989204,0.207786013312,0.387,0.45,2,2,2,639,2
0.225139225826,1.07864249169,0.224282704006,0.10372696064,0.457,0.45,1,1,1,640,2
0.115071073615,0.0643700934769,1.015364828,0.201908244053,0.362,0.45,3,2,-1,641,2
0.698298895055,1.34821111256,0.0544842935796,0.139891071806,0.445,0.45,1,1,2,642,2
0.0866879069864,0.156345735742,1.05922817151,0.326639492733,0.449,0.45,2,2,2,643,2
0.272593074304,0.150143302898,0.211413825099,1.00500445499,0.439,0.45,3,3,2,644,2
1.05292026489,0.205728828112,0.157388384618,0.135690071963,0.408,0.45,0,0,2,645,2
0.240272270303,1.08947180487,0.156409048741,0.255145657422,0.437,0.45,1,1,2,646,2
1.03557577555,0.233970082886,0.210424403978,0.202502279307,0.442,0.45,0,0,2,647,2
0.205336662793,0.157434526803,0.183513931384,1.00192613365,0.327,0.45,3,3,2,648,2
0.292350279381,0.169100412463,1.11743649944,0.261378728562,0.371,0.45,2,2,2,649,2
1.02442363723,0.146914613282,0.127357604646,0.120023159512,0.331,0.45,0,0,2,650,2
0.17683580633,1.10229766714,0.184658452281,0.325430464659,0.466,0.45,1,1,1,651,3
1.24179651159,0.336104378099,0.221581083541,0.29827149182,0.377,0.45,0,0,2,652,3
0.363963037073,0.0741537425793,1.06933509105,0.335121372689,0.276,0.45,2,2,2,653,3
0.483264499954,0.0996064210979,0.364960630969,1.11045107665,0.274,0.45,3,3,2,654,3
0.465978917214,0.360611500949,1.11088745592,0.399682853807,0.317,0.45,2,2,2,655,3
0.61708013055,1.07780557437,0.398368281875,0.310696881478,0.326,0.45,0,1,-1,656,3
0.420420333314,0.0460829599842,1.03919365607,0.382327437718,0.297,0.45,3,2,-1,657,3
1.13572216413,0.117186122098,0.339882618713,0.326616369471,0.394,0.45,0,0,2,658,3
0.405368088794,1.15403719373,0.387168000477,0.47634266001,0.492,0.45,1,1,1,659,3
0.277445998016,0.274958418985,0.279967350065,1.19799170192,0.377,0.45,3,3,2,660,3
0.495203983964,1.19171525764,0.322052873853,0.33231273763,0.353,0.45,1,1,2,661,3
0.273757768316,0.159576758182,0.622279534317,1.05749844784,0.351,0.45,2,3,-1,662,3
0.247707671481,1.12417933086,0.353373204286,0.233099306861,0.472,0.45,1,1,1,663,3
1.07130225279,0.211566909592,0.202548412067,0.295162129549,0.442,0.45,0,0,2,664,3
0.193919947945,0.120883364854,1.06602699939,0.346054664678,0.373,0.45,2,2,2,665,3
0.359444081595,0.0928703423092,0.387274027724,1.06296237727,0.297,0.45,3,3,2,666,3
1.13322500147,0.311775071419,0.267968121318,0.263868417203,0.326,0.45,0,0,2,667,3
0.302245652176,0.0693836576219,1.06355632503,0.268976117791,0.333,0.45,3,2,-1,668,3
0.307247602218,0.0691269232025,1.0313124355,1.01716745921,0.455,0.45,2,2,1,669,3
0.642052329118,1.04246597042,0.363525040981,0.496434087114,0.582,0.45,1,1,1,670,3
0.272662035375,0.185665136497,0.321395351151,1.0789996471,0.439,0.45,3,3,2,671,3
0.372762741223,0.56837915833,0.820666006181,0.227136837041,0.7,0.45,1,-1,0,673,3
0.477970805907,1.14513985951,0.281081347238,0.224062677698,0.163,0.45,2,1,-1,673,3
1.04309931707,0.213578171166,0.202970367724,0.313204355133,0.328,0.45,0,0,2,674,3
0.5159649694,1.03808514603,0.29630784474,0.267196950766,0.509,0.45,1,1,1,675,3
0.36943118027,0.0811144196844,0.16409835457,1.05554204853,0.413,0.45,3,3,2,676,3
0.13843420082,0.0718736059851,1.06296788935,0.248478273495,0.454,0.45,2,2,1,677,3
1.09801489384,0.216694729668,0.193250518693,0.149894093514,0.473,0.45,0,0,1,678,3
0.596676084053,0.382387927408,0.243652077051,0.267214524021,0.7,0.45,3,-1,0,680,3
0.923169946492,0.70976830399,0.649581295783,0.327256673048,0.7,0.45,0,-1,0,681,3
1.0198593315,0.702828441831,0.651076966156,0.326173931776,0.0240000000004,0.45,2,0,-1,681,3
0.699790394205,0.202156622829,0.576391268525,1.02671601605,0.448,0.45,3,3,2,682,3
1.19717882226,0.274468342614,0.252113321374,0.229589708974,0.357,0.45,1,0,-1,683,3
1.00781180184,0.246499461099,0.192116924513,0.268036520638,0.384,0.45,0,0,2,684,3
0.674139164071,1.12996273013,0.356712642371,0.272341003724,0.468,0.45,1,1,1,685,3
0.437900758143,0.0858745943744,1.02997215222,0.326019379566,0.418,0.45,2,2,2,686,3
1.00682549132,0.274787170356,0.147929173332,0.209742207066,0.399,0.45,1,0,-1,687,3
0.317595352443,0.0896867716675,0.174018827066,1.03629311429,0.408,0.45,3,3,2,688,3
0.381739678471,0.0701625365726,1.04714611494,0.350177625603,0.448,0.45,2,2,2,689,3
1.1606855799,0.0752048817876,0.201494926873,0.214493594631,0.394,0.45,0,0,2,690,3
0.192380019874,0.0615110910962,1.07584227973,0.384300474383,0.43,0.45,2,2,2,691,3
0.315949988171,0.0698812974042,0.167230964723,1.01100560189,0.435,0.45,3,3,2,692,3
1.09178428869,0.139975490003,0.0843287402397,0.208989743797,0.418,0.45,0,0,2,693,3
0.198820531569,0.119861231635,0.224967343098,1.00356779815,0.404,0.45,3,3,2,694,3
0.170795668761,1.08705318065,0.188881790491,0.21041769843,0.432,0.45,1,1,2,695,3
1.04853055653,0.178756498776,0.150315300645,0.26156716569,0.577,0.45,0,0,1,696,3
0.300299225908,1.07351084074,0.471646998669,0.277649786188,0.526,0.45,1,1,1,697,3
0.286287213659,0.26543150116,1.0045739668,0.2969254852,0.434,0.45,2,2,2,698,3
0.134196907108,1.08738415024,0.180569932387,0.275921591422,0.401,0.45,1,1,2,699,3
1.09073628823,0.319885813404,0.168391644241,0.218151364917,0.319,0.45,0,0,2,700,3
0.324065556636,0.0919190357849,1.00642756795,0.288937378353,0.437,0.45,2,2,2,701,3
0.230471315561,0.0450069702585,0.173837552399,1.17165271979,0.47,0.45,3,3,1,702,3
1.15610145816,0.162489914188,0.255535314101,0.268627104709,0.417,0.45,0,0,2,703,3
0.233579902331,0.158757343498,0.199042417162,1.117750436,0.383,0.45,3,3,2,704,3
0.16321770256,0.104019958763,1.08370323978,0.22250267621,0.408,0.45,2,2,2,705,3
0.168020468951,1.19250454767,0.175227312566,0.124973726831,0.343,0.45,1,1,2,706,3
0.307130640817,0.0696848959189,0.563797485851,1.02501226641,0.411,0.45,3,3,2,707,3
1.02887343795,0.335806677066,0.192586669245,0.283724806988,0.398,0.45,1,0,-1,708,3
0.0814874617634,0.168215873803,0.266648036337,0.319729734467,0.7,0.45,2,-1,0,710,3
0.424038461213,1.1256350813,0.260051058216,0.193427123739,0.434,0.45,0,1,-1,710,3
0.365280959914,1.26707023561,0.0625303656559,0.167629120189,0.503,0.45,1,1,1,711,3
0.223118478035,0.418608677299,1.04691252232,0.261105975136,0.469,0.45,2,2,1,712,3
1.16773495559,0.162383794717,0.0964233435057,0.240972854066,0.386,0.45,0,0,2,713,3
0.504284059751,0.326788642556,0.505350843251,1.06183255864,0.464,0.45,3,3,1,714,3
1.03196962248,0.343112505116,0.250221242399,0.134645458513,0.409,0.45,0,0,2,715,3
0.390550271513,0.185789235313,1.0087716362,0.283411859679,0.463,0.45,2,2,1,716,3
0.54327024375,0.156374459831,0.224215368375,1.05360411338,0.528,0.45,3,3,1,717,3
0.672343320488,1.01818774183,0.187159937785,0.150401104611,0.539,0.45,1,1,1,718,3
0.503405076134,0.170107570054,0.244263545191,1.05015356357,0.389,0.45,3,3,2,719,3
0.491559772389,0.321704385861,1.04462841107,0.77836756762,0.622,0.45,2,2,1,720,3
0.488554792026,1.08990915953,0.323761479269,0.178896727884,0.537,0.45,1,1,1,721,3
1.03227128097,1.02145063134,0.338622428342,0.181311103557,0.0220000000004,0.45,0,0,2,722,3
0.40052340482,1.04222306978,0.595810178091,0.47019316439,0.503,0.45,1,1,1,723,3
1.11506051168,0.370165413491,0.096072166815,0.133277851378,0.466,0.45,0,0,1,724,3
0.416695877074,0.297884241875,1.06756295186,0.305912933722,0.4,0.45,2,2,2,725,3
0.359215815989,0.165828810116,0.761961339738,1.00370064552,0.423,0.45,3,3,2,726,3
1.08791766089,0.230781357197,0.262182422216,0.190682997549,0.342,0.45,0,0,2,727,3
0.451594809051,0.155592401652,0.254198200903,1.04511714136,0.319,0.45,3,3,2,728,3
0.466117054058,0.228224480683,1.08632710781,0.318968132034,0.404,0.45,2,2,2,729,3
1.03146146925,0.518122369589,0.170587769904,0.174134162307,0.397,0.45,0,0,2,730,3
0.485512683293,1.06197093246,0.377880360725,0.18360646577,0.405,0.45,1,1,2,731,3
0.448210200693,0.132844701829,0.176972754108,1.05283683668,0.666,0.45,3,3,1,732,3
0.691668690333,1.01178126577,0.0900248234143,0.258599247229,0.494,0.45,1,1,1,733,3
0.57867469381,0.118527383228,0.131055930185,1.0274688309,0.385,0.45,2,3,-1,734,3
0.596411109799,1.12093054672,0.148289228821,0.13934104555,0.433,0.45,1,1,2,735,3
0.426356015834,0.0680445307567,0.277439167993,1.12911239017,0.379,0.45,3,3,2,736,3
0.369146031111,0.143636920198,1.07428754043,0.496000750003,0.412,0.45,2,2,2,737,3
1.14995189014,0.134060548587,0.239602628449,0.182464519218,0.404,0.45,0,0,2,738,3
0.296610845508,0.107029325202,1.11826522826,0.344386334246,0.33,0.45,2,2,2,739,3
0.312068658749,0.094836624932,0.220102618025,1.05055688966,0.348,0.45,3,3,2,740,3
1.0057445253,0.175854753949,0.146724598653,0.161898116455,0.36,0.45,0,0,2,741,3
0.621276424323,1.020499095,0.147449860193,0.296095066262,0.422,0.45,1,1,2,742,3
1.06452669101,0.0933786082439,0.123118414864,0.332532643557,0.46,0.45,0,0,1,743,3
0.30374768949,0.0995498596517,0.103572548185,1.05648816072,0.375,0.45,3,3,2,744,3
0.497608365723,1.03181370148,0.0880755385329,0.211187895645,0.517,0.45,1,1,1,745,3
0.0897632351668,0.261238198596,1.02200623394,0.278878459534,0.551,0.45,2,2,1,746,3
0.380311794042,1.17949779042,0.437847708543,0.276059734534,0.498,0.45,1,1,1,747,3
0.244392251269,0.202127372315,0.277641911247,1.0089652975,0.422,0.45,2,3,-1,748,3
0.138513308243,0.0869455163038,0.486623760809,1.04514003563,0.478,0.45,3,3,1,749,3
1.08913878386,0.199352736482,0.196987235568,0.260102132975,0.452,0.45,0,0,1,750,3
0.241566192341,0.0773797465975,0.826184552566,1.05455128382,0.442,0.45,3,3,2,751,3
0.242990066193,0.108693188913,1.09662260703,0.685593120738,0.416,0.45,2,2,2,752,3
0.354138994193,1.0727754598,0.329886553383,0.182051680535,0.366,0.45,0,1,-1,753,3
0.170474389114,1.30000586152,0.317105449151,0.212678938637,0.536,0.45,1,1,1,754,3
0.13243799616,0.0883776930728,0.624376814329,1.03144269883,0.473,0.45,3,3,1,755,3
1.0037793814,0.239263415166,0.177898787034,0.219941460929,0.403,0.45,1,0,-1,756,3
1.03552897007,0.0973122025975,0.162617561693,0.281853616118,0.507,0.45,0,0,1,757,3
0.151129826264,0.111771934005,1.09293058074,0.309931614274,0.403,0.45,2,2,2,758,3
0.379646395226,1.03659439293,0.30589426672,0.210427012175,0.485,0.45,1,1,1,759,3
0.350965842378,0.280158668879,0.364682980984,1.00059259827,0.354,0.45,3,3,2,760,3
1.01202228668,0.298044534491,0.303935389217,0.19421348953,0.364,0.45,0,0,2,761,3
0.355991905921,0.189889997034,1.02644577193,0.346981369104,0.358,0.45,2,2,2,762,3
1.04375127647,0.205756291795,0.24410815441,0.164384602811,0.424,0.45,0,0,2,763,3
0.519351625771,0.209537478278,0.250569887304,1.05816350663,0.444,0.45,3,3,2,764,3
0.323375940906,0.224484816153,1.00808208243,0.372259256764,0.519,0.45,2,2,1,765,3
0.444327566564,0.155324253628,0.207760036396,1.06011169108,0.514,0.45,3,3,1,766,3
0.627400571062,1.14143983234,0.49996881943,0.205308608695,0.534,0.45,1,1,1,767,3
0.352061926812,0.229154901526,1.0195675221,0.187364481126,0.375,0.45,2,2,2,768,3
1.0309355599,0.310454705913,0.165737506143,0.137136193682,0.443,0.45,1,0,-1,769,3
1.01825433522,0.270249741405,0.128810428282,0.211584190496,0.455,0.45,0,0,1,770,3
0.30334860926,1.00504822417,0.64963576306,0.164974277076,0.479,0.45,1,1,1,771,3
0.200019118018,0.183243409378,0.437417105125,1.02122557737,0.476,0.45,3,3,1,772,3
1.12716061938,1.00879405442,0.0531130496236,0.129259266159,0.449,0.45,0,0,2,773,3
0.278579612957,0.146484665006,1.1535465701,0.249181958192,0.453,0.45,2,2,1,774,3
1.09213691682,0.139985302076,0.200932518961,0.137315244158,0.405,0.45,0,0,2,775,3
0.281615553543,0.0803098392758,0.274122764056,1.08636256222,0.334,0.45,3,3,2,776,3
0.327866509153,1.15640394268,0.0927896547887,0.139887630737,0.3,0.45,2,1,-1,777,3
0.401633730282,1.0607527483,0.13106386137,0.184437051489,0.385,0.45,1,1,2,778,3
1.0583065458,0.213782211544,0.184374809745,0.255382993258,0.288,0.45,0,0,2,779,3
1.02292545103,0.156229434328,0.342404661437,0.22308232452,0.384,0.45,1,0,-1,780,3
0.105402079851,0.539134869764,1.09521563937,0.50215322758,0.484,0.45,2,2,1,781,3
0.132690328848,0.0723561980307,1.03423733275,0.340849412273,0.397,0.45,3,2,-1,782,3
0.754121046526,1.03512845696,0.212867371943,0.242785721818,0.488,0.45,1,1,1,783,3
1.01737630621,0.114819095359,0.121843461035,0.248166111879,0.425,0.45,0,0,2,784,3
0.216150048865,0.171769280049,1.18494829919,0.333024921231,0.359,0.45,3,2,-1,785,3
0.164503307566,0.102389014782,1.16138153321,0.329558445415,0.439,0.45,2,2,2,786,3
0.23120660245,0.135492536642,0.398081777447,1.02178253332,0.435,0.45,3,3,2,787,3
1.24795658792,0.25538687066,0.241752718356,0.253801765423,0.42,0.45,0,0,2,788,3
0.150566693171,0.163752112771,1.08080745043,0.36049576493,0.366,0.45,2,2,2,789,3
0.227763264528,1.08011823472,0.303150370768,0.311198062691,0.4,0.45,0,1,-1,790,3
0.212350538463,1.07053695187,0.168450020602,0.249348877303,0.424,0.45,1,1,2,791,3
0.101027818547,0.0925524497733,0.373566791264,1.13262434231,0.387,0.45,3,3,2,792,3
0.187141733272,1.09482547509,0.152343101693,0.241899874558,0.378,0.45,1,1,2,793,3
0.185629508387,0.250677320231,1.0558679781,0.347295354919,0.414,0.45,2,2,2,794,3
0.277964643585,1.08924904201,0.494253040274,0.329532985725,0.451,0.45,1,1,1,795,3
0.125927095872,0.212199778033,0.261371383958,1.01234224711,0.423,0.45,3,3,2,796,3
1.1054619247,0.253860944708,0.157848652797,0.266329204917,0.414,0.45,0,0,2,797,3
0.351406937378,0.192952907773,1.04517010639,0.426107032664,0.353,0.45,2,2,2,798,3
0.382919741139,0.0944874770724,0.2693122883,1.10528671639,0.311,0.45,3,3,2,799,3
0.161941560851,0.253800295592,1.05695395647,0.617691748605,0.451,0.45,2,2,1,800,3
0.212578016613,1.03828385263,0.24409945313,0.236262489116,0.403,0.45,0,1,-1,801,3
0.13703624832,0.0491084256508,1.00776485466,0.937284299648,0.425,0.45,3,2,-1,802,3
1.08486118637,0.080622254206,0.0663277464033,0.210388924285,0.388,0.45,1,0,-1,803,3
1.16912792349,0.128193560162,0.0651216883735,0.192789039547,0.502,0.45,0,0,1,804,3
0.172478220585,1.046684444,0.0730287585872,0.166227505782,0.478,0.45,1,1,1,805,3
0.130423187386,0.0604284298472,1.02492093759,0.272134226327,0.462,0.45,2,2,1,806,3
0.530616732966,1.07447507534,0.216696082903,0.381427171998,0.426,0.45,1,1,2,807,3
0.224777593887,0.246114448784,1.04219649401,0.597365709091,0.486,0.45,2,2,1,808,3
0.270161476143,0.132645901875,0.403212865363,1.01254991758,0.342,0.45,3,3,2,809,3
1.1185590672,0.197042552686,0.214288841661,0.229884059853,0.353,0.45,0,0,2,810,3
0.310691721685,0.140238706232,1.00629078741,0.440441123244,0.343,0.45,3,2,-1,811,3
0.310261375727,0.128128139415,1.03181684571,0.33810844908,0.37,0.45,2,2,2,812,3
1.09391049386,0.0914731812341,0.153104204223,0.261878077904,0.403,0.45,0,0,2,813,3
0.145840653534,0.572641599825,1.14090165931,0.468296423179,0.567,0.45,2,2,1,814,3
0.516672150248,1.0134910114,0.138061089725,0.220687166326,0.536,0.45,1,1,1,815,3
0.178074279827,0.223224217626,0.126323012464,1.02317927533,0.417,0.45,3,3,2,816,3
0.431581263576,1.08881714992,0.0883999801176,0.227308722308,0.459,0.45,1,1,1,817,3
1.00415867552,0.222958656499,0.169782044557,0.301673465827,0.458,0.45,0,0,1,818,3
1.0764259029,0.224208151055,0.429630663042,0.449693033371,0.502,0.45,1,0,-1,819,3
1.11660655849,0.411179165152,0.190951689196,0.32502315574,0.489,0.45,0,0,1,820,3
0.156949422431,0.172818701204,1.05292594057,0.535717883142,0.438,0.45,2,2,2,821,3
0.19308595677,0.251172889709,0.268754943601,1.10236163765,0.437,0.45,3,3,2,822,3
0.270061171868,0.227197067163,1.04084533948,0.285232238402,0.451,0.45,2,2,1,823,3
1.07100343837,0.349702395683,0.145645245763,0.216885221736,0.507,0.45,0,0,1,824,3
0.242559466612,0.220153788806,0.293135009093,1.08427979337,0.532,0.45,3,3,1,825,3
0.384534888545,1.05172526572,0.182491161782,0.352489450858,0.373,0.45,1,1,2,826,3
0.399388307235,0.314701499987,1.03355716354,0.695831374183,0.434,0.45,2,2,2,827,3
1.08415240752,0.337905720552,0.253865831721,0.216885830996,0.404,0.45,1,0,-1,828,3
0.233995650113,0.132027514931,0.517661705107,1.11522753502,0.434,0.45,3,3,2,829,3
0.396243850113,1.02009341595,0.408611755097,0.412123070354,0.546,0.45,0,1,-1,830,3
0.159946879456,0.0683126250537,1.04914005955,0.352167618536,0.516,0.45,1,2,-1,831,3
1.11022608321,0.115076826914,0.213558269913,0.275634960322,0.498,0.45,0,0,1,832,3
0.32204358058,0.110765015858,0.55720194452,1.06616104509,0.45,0.45,3,3,1,833,3
0.167275540217,0.192457035774,1.13614844397,0.365969867859,0.473,0.45,2,2,1,834,3
1.01100614339,0.105410251966,0.16426523885,0.24047661122,0.373,0.45,0,0,2,835,3
0.169130325831,0.213878337843,0.557931426573,1.01832845098,0.46,0.45,2,3,-1,836,3
0.218422322119,0.046607309412,0.621982980627,1.09113638677,0.483,0.45,3,3,1,837,3
1.07784517616,0.0714589789435,0.0931639491743,0.204903292764,0.453,0.45,0,0,1,838,3
0.315457190944,1.03502783651,0.18303378503,0.24066822224,0.381,0.45,1,1,2,839,3
0.199288913998,0.244051429582,1.0629692181,0.409966627764,0.372,0.45,2,2,2,840,3
0.56067876855,1.12077070176,0.179577412954,0.208593935033,0.402,0.45,1,1,2,841,3
0.117604791557,0.0523825885917,0.240763329455,1.10110071081,0.436,0.45,3,3,2,842,3
0.225848382465,1.11613662717,0.270773533355,0.309561649378,0.492,0.45,1,1,1,843,3
0.123603166141,0.0978937972537,1.15978381067,0.348656544934,0.418,0.45,2,2,2,844,3
1.01986748337,0.202550773362,0.140894037019,0.215527868021,0.384,0.45,0,0,2,845,3
0.255455752051,0.122203931834,0.259071834181,1.23156792909,0.33,0.45,3,3,2,846,3
0.174347271773,0.15109799305,1.21779340354,0.325525020985,0.345,0.45,2,2,2,847,3
0.22339811327,0.364641120358,0.225623748769,1.00918705639,0.419,0.45,3,3,2,848,3
1.04473510242,0.174173599207,0.115826525443,0.274545348527,0.424,0.45,0,0,2,849,3
0.106961287392,1.15927952234,0.122029788029,0.268150970484,0.369,0.45,1,1,2,850,3
1.13585023835,0.216110920754,0.269145940721,0.257893936194,0.39,0.45,0,0,2,851,3
0.325321269272,0.150048447066,1.06941030891,0.252279377944,0.382,0.45,2,2,2,852,3
0.236435680559,1.10713200048,0.270958198543,0.25574758673,0.408,0.45,1,1,2,853,3
0.123202585655,0.305398542006,0.290769744507,1.03525281761,0.384,0.45,3,3,2,854,3
0.324838112979,1.16669260515,0.154661526191,0.269642158342,0.37,0.45,1,1,2,855,3
1.236020408,0.194099463794,0.162917292907,0.374586868963,0.365,0.45,0,0,2,856,3
0.160535308441,0.102508091033,1.03289923831,0.220588070261,0.318,0.45,3,2,-1,857,3
0.22642353419,1.11752758596,0.182456778694,0.194677063211,0.391,0.45,2,1,-1,858,3
1.00070337955,0.0957632106439,0.17976498121,0.231942965645,0.387,0.45,0,0,2,859,3
0.210895006643,0.0620847286422,1.11776867179,0.293111657339,0.399,0.45,2,2,2,860,3
0.366705422615,0.0323873019786,0.202638172324,1.01273100434,0.31,0.45,3,3,2,861,3
1.08471249217,0.211688067044,0.162881815444,0.230576724221,0.356,0.45,0,0,2,862,3
0.347600288859,1.03111290963,0.142610287072,0.205467120288,0.387,0.45,1,1,2,863,3
0.129663566873,0.193525444854,0.0539728029175,1.05570881082,0.369,0.45,3,3,2,864,3
0.25525570481,1.14260786821,0.0519261530443,0.15363245965,0.436,0.45,1,1,2,865,3
0.0866334515475,0.379960647258,1.06531344428,0.30794296587,0.426,0.45,2,2,2,866,3
0.411455470009,1.02298080087,0.101767003298,0.216091400071,0.468,0.45,1,1,1,867,3
1.06206571627,0.174821026634,0.245550362311,0.375659410734,0.439,0.45,0,0,2,868,4
0.165308997575,0.125319112301,1.00232809863,0.635603431154,0.339,0.45,3,2,-1,869,4
0.37326295875,1.11813194873,0.302881545985,0.321827269089,0.49,0.45,1,1,1,870,4
0.496868610014,0.136366894677,1.05028505405,0.350117391962,0.414,0.45,2,2,2,871,4
0.475001855077,1.12192696296,0.338543299775,0.269118768901,0.374,0.45,1,1,2,872,4
0.386671259917,0.164341598819,0.292963087311,1.07738191853,0.355,0.45,3,3,2,873,4
0.160033614426,0.212777631628,1.00222898041,0.489972174768,0.472,0.45,2,2,1,874,4
1.06689698235,0.278492909101,0.164712712863,0.294427647332,0.374,0.45,0,0,2,875,4
0.136813734864,0.14171209471,1.02563707297,0.390702899023,0.342,0.45,2,2,2,876,4
0.387344143859,0.112085133553,0.303969326464,1.0187479037,0.313,0.45,3,3,2,877,4
1.00477432415,0.219971299653,0.39523490493,0.240930029898,0.369,0.45,0,0,2,878,4
0.477682933997,1.02647717463,0.295283694836,0.253997430868,0.39,0.45,1,1,2,879,4
1.1160957591,0.128531741266,0.323797114498,0.317002380561,0.398,0.45,0,0,2,880,4
0.359392112219,1.06684832702,0.411633979075,0.283712800826,0.489,0.45,1,1,1,881,4
0.249427468052,0.15453909731,1.0233152523,0.310833482221,0.39,0.45,2,2,2,882,4
0.32081328882,0.115273873977,0.33287440834,1.06835673994,0.295,0.45,3,3,2,883,4
0.585213673426,1.01575881766,0.203718421393,0.215584324048,0.424,0.45,1,1,2,884,4
0.21575153194,0.087171405713,1.03097769498,0.33655995818,0.372,0.45,3,2,-1,885,4
0.265296475393,0.0995981875065,1.04128644969,0.473991704304,0.361,0.45,2,2,2,886,4
1.08944891161,0.26193776537,0.18154474221,0.329962042444,0.367,0.45,0,0,2,887,4
0.166077958646,0.102872162977,0.305492588697,1.09425969325,0.302,0.45,3,3,2,888,4
1.13800946857,0.18121544561,0.390561573415,0.433096179443,0.418,0.45,0,0,2,889,4
0.308122072041,0.109572184193,1.07643358727,0.412598488056,0.349,0.45,2,2,2,890,4
0.521930347038,1.06481499926,0.219657208626,0.359938939048,0.394,0.45,1,1,2,891,4
1.11566665746,0.187928561208,0.192515299715,0.483702384372,0.416,0.45,0,0,2,892,4
0.578559578345,1.09751257063,0.107195347668,0.314996829631,0.503,0.45,1,1,1,893,4
0.309479297104,0.209141307781,0.125824135845,1.06543325235,0.413,0.45,3,3,2,894,4
0.357203891026,0.0528386975836,1.02346067749,0.724757471107,0.499,0.45,2,2,1,895,4
0.440714098427,0.152299741335,1.07105651003,0.399763026377,0.32,0.45,3,2,-1,896,4
0.552869390234,1.03721633477,0.296861435845,0.409072506504,0.402,0.45,1,1,2,897,4
0.420328586905,0.452439517721,1.05251133577,0.433459631636,0.409,0.45,2,2,2,898,4
1.13141660507,0.194287555133,0.278539056411,0.332046057449,0.344,0.45,0,0,2,899,4
0.289137886763,0.330990055026,1.03584516097,0.930803838138,0.369,0.45,2,2,2,900,4
0.471428865103,1.2363846984,0.295293611154,0.267800364635,0.382,0.45,1,1,2,901,4
1.20327566467,0.214008649323,0.221391093262,0.338772268426,0.38,0.45,0,0,2,902,4
0.165833239651,0.267962323912,1.08053320351,0.404853916468,0.362,0.45,3,2,-1,903,4
1.04486078272,0.241751404377,0.226352259716,0.244750683727,0.385,0.45,0,0,2,904,4
0.279854334029,0.151145654974,1.04417444975,0.355921959032,0.36,0.45,2,2,2,905,4
0.522408287345,1.010491655,0.193498888251,0.233244780183,0.382,0.45,1,1,2,906,4
0.26308623396,0.215666151932,0.220181656682,1.26498063686,0.35,0.45,3,3,2,907,4
1.14200941028,0.231017928015,0.168303825856,0.153707753782,0.325,0.45,1,0,-1,908,4
0.112411489407,0.08820548299,1.16894722157,0.280741047409,0.366,0.45,2,2,2,909,4
0.161365472477,0.0873083160293,0.621050615847,1.09102466336,0.426,0.45,3,3,2,910,4
0.182112640042,0.512035549452,1.00958868434,0.385363871467,0.475,0.45,2,2,1,911,4
1.08485015795,0.0901688408148,0.214183364132,0.321684481008,0.502,0.45,0,0,1,912,4
0.144340107083,1.14338479764,0.211977396836,0.289112286651,0.376,0.45,1,1,2,913,4
1.04985210523,0.170488595489,0.249634597644,0.404386980875,0.425,0.45,0,0,2,914,4
0.273791818145,0.157605432468,0.235015578148,1.23301750598,0.380000000001,0.45,3,3,2,915,4
1.20303276315,0.233986854563,0.21711971091,0.167181736179,0.402000000001,0.45,0,0,2,916,4
0.332979874741,0.143104194696,1.16943851623,0.367525965264,0.362000000001,0.45,3,2,-1,917,4
0.277376696589,0.105164665282,1.17046609658,0.315636526966,0.396000000001,0.45,2,2,2,918,4
0.438658939697,1.16708124462,0.124626590986,0.280532296187,0.384000000001,0.45,1,1,2,919,4
0.234161812419,0.107679448627,0.0749265516178,1.10769790115,0.356000000001,0.45,3,3,2,920,4
1.03428647044,0.349507441639,0.130195568322,0.180409998969,0.338000000001,0.45,1,0,-1,921,4
0.208365333591,0.164752465881,1.0691962905,0.499991274226,0.355000000001,0.45,2,2,2,922,4
0.226334999674,0.0965789342032,0.35051733605,1.05342815758,0.325000000001,0.45,3,3,2,923,4
1.13385266796,0.211928838214,0.210559402332,0.251867352011,0.382000000001,0.45,0,0,2,924,4
0.14520244908,0.0598738073471,1.04125029377,0.3890584348,0.379000000001,0.45,2,2,2,925,4
1.11819864149,0.166254749953,0.234397718348,0.332881131864,0.433000000001,0.45,0,0,2,926,4
0.309710662565,1.16919540692,0.107621137525,0.239568691589,0.422000000001,0.45,1,1,2,927,4
1.05435485369,0.12258709326,0.181695322822,0.373578419171,0.383000000001,0.45,0,0,2,928,4
0.271361144181,0.0837004768357,1.14011586195,0.342843817444,0.333000000001,0.45,2,2,2,929,4
0.362237562689,0.0585459390898,0.151258528984,1.00605887611,0.264000000001,0.45,3,3,2,930,4
0.407528707801,1.0664669717,0.124946068663,0.270386840822,0.320000000001,0.45,1,1,2,931,4
0.142876733498,0.0982121858387,0.289127013491,1.02378822151,0.394000000001,0.45,2,3,-1,932,4
1.04387957757,0.0790330701908,0.247296049712,0.18140393166,0.377000000001,0.45,1,0,-1,933,4
0.141446907234,0.204155332514,0.193948885251,1.07934023871,0.387000000001,0.45,3,3,2,934,4
0.131012207546,0.151098378528,1.01706557279,0.368981117062,0.477000000001,0.45,2,2,1,935,4
1.02316817613,0.16169355848,0.119794693393,0.300350936977,0.449000000001,0.45,0,0,2,936,4
0.129577758709,1.15720705656,0.242328078028,0.287460606193,0.352000000001,0.45,1,1,2,937,4
1.07052146237,0.179397744208,0.303413439709,0.334015837467,0.432000000001,0.45,0,0,2,938,4
0.143708058119,0.0916358010119,0.310232422188,1.05616531371,0.444000000001,0.45,3,3,2,939,4
1.06788283847,0.141864253312,0.154404939679,0.277788428013,0.410000000001,0.45,0,0,2,940,4
0.242147423027,0.0953130348092,0.168792522522,1.0449588128,0.372000000001,0.45,3,3,2,941,4
0.290624126994,0.0930299228596,1.10642180818,0.446055864881,0.382000000001,0.45,2,2,2,942,4
0.399124492133,1.02782733053,0.228247660756,0.267192975287,0.366000000001,0.45,1,1,2,943,4
0.309232253175,0.105400957214,0.098858874392,1.12254675202,0.333000000001,0.45,3,3,2,944,4
1.09653767776,0.133978271825,0.224111067314,0.265592330259,0.436000000001,0.45,1,0,-1,945,4
0.113816171407,0.126168770604,1.04871554099,0.321592077744,0.419000000001,0.45,2,2,2,946,4
1.07691103968,0.150816608158,0.165812633244,0.273874179059,0.421000000001,0.45,0,0,2,947,4
0.117036898583,1.13365389974,0.56333041497,0.343602596905,0.403000000001,0.45,1,1,2,948,4
1.25291518261,0.251615149594,0.144064548254,0.265799205861,0.464000000001,0.45,0,0,1,949,4
0.278894666726,0.118366531937,1.07555835712,0.320608000536,0.404000000001,0.45,2,2,2,950,4
0.503664409465,0.154124594595,0.312626666092,1.00451721396,0.387000000001,0.45,3,3,2,951,4
0.640063606223,0.287146027108,0.246463484677,0.322725453489,0.7,0.45,0,-1,0,953,4
1.06145403191,0.236523007674,0.244782269616,0.346697446935,0.116000000001,0.45,3,0,-1,953,4
0.325316583463,1.11813397743,0.177296058573,0.277972447816,0.385000000001,0.45,1,1,2,954,4
0.332687548028,0.201131550993,1.03907276392,0.369155192724,0.427000000001,0.45,2,2,2,955,4
0.261548949024,0.151963059368,0.280814066849,1.13347245527,0.355000000001,0.45,3,3,2,956,4
0.214807215564,0.176352061909,1.00026863065,0.580098660202,0.584000000001,0.45,2,2,1,957,4
0.24287881057,0.116717602268,1.06415517769,0.395573262094,0.139000000001,0.45,1,2,-1,958,4
1.081511779,0.155049239995,0.107535876054,0.272207896075,0.183000000001,0.45,3,0,-1,959,4
1.19562212287,0.246265122984,0.237762793569,0.379310482917,0.0530000000005,0.45,0,0,2,960,4
0.14417551066,1.17076337316,0.209855647838,0.341924473486,0.419000000001,0.45,1,1,2,961,4
1.17002948594,0.46521567816,0.311486779834,0.480213668707,0.427000000001,0.45,0,0,2,962,4
0.340833442247,0.180722100263,1.04566687865,0.415220854082,0.392000000001,0.45,2,2,2,963,4
0.485260520131,1.04747557244,0.399785927217,0.456157029332,0.528000000001,0.45,0,1,-1,964,4
0.51936091718,0.116114526775,1.00032363046,0.414365989873,0.451000000001,0.45,2,2,1,965,4
0.487908889123,1.06014383443,0.227616840683,0.309248029799,0.449000000001,0.45,1,1,2,966,4
0.410175708676,0.144225385868,0.311009564158,1.13169847647,0.363000000001,0.45,3,3,2,967,4
1.01864443825,0.20572243552,0.197654510633,0.290763368811,0.352000000001,0.45,1,0,-1,968,4
0.453854388152,0.237787482959,1.00086683282,0.410039530569,0.411000000001,0.45,2,2,2,969,4
0.390378014107,0.184369194497,0.240800317217,1.07821384874,0.405000000001,0.45,3,3,2,970,4
0.326201552549,0.103874630229,1.05371904277,0.36583399011,0.509000000001,0.45,2,2,1,971,4
1.14311746054,0.259235552444,0.16371097384,0.254534406349,0.505000000001,0.45,0,0,1,972,4
0.322293142589,1.13675982758,0.204299673703,0.298410374906,0.504000000001,0.45,1,1,1,973,4
1.16298265596,0.122173153479,0.212367310333,0.308266538107,0.447000000001,0.45,0,0,2,974,4
0.379761479208,0.113315272735,0.263761217963,1.04420997797,0.413000000001,0.45,3,3,2,975,4
1.15425473153,0.123372723361,0.20707695213,0.302445683625,0.396000000001,0.45,0,0,2,976,4
0.376035019512,1.03931477302,0.229795761627,0.365719572818,0.452000000001,0.45,1,1,1,977,4
0.155760314722,0.114441476056,0.762986841472,1.00462522822,0.386000000001,0.45,3,3,2,978,4
0.150033709134,0.183517655005,1.01469561383,0.301073092626,0.423000000001,0.45,2,2,2,979,4
0.220158433964,0.141810523311,0.341663716696,1.14724624128,0.358000000001,0.45,3,3,2,980,4
0.457664708459,1.22071532832,0.193499185255,0.303558527113,0.384000000001,0.45,1,1,2,981,4
0.196802958425,0.143681319658,1.1477997426,0.509710478268,0.430000000001,0.45,2,2,2,982,4
1.09098058395,0.28688719105,0.203729767398,0.273344197575,0.430000000001,0.45,1,0,-1,983,4
1.25610212997,0.18595860979,0.151686608622,0.312955276715,0.413000000001,0.45,0,0,2,984,4
0.135548434172,0.247854634124,0.30746727271,1.12407405064,0.397000000001,0.45,3,3,2,985,4
1.05350399013,0.222482505476,0.279571827765,0.425687743326,0.392000000001,0.45,0,0,2,986,4
0.403618628945,0.108434629785,1.11516791579,0.406285781919,0.358000000001,0.45,2,2,2,987,4
1.15907936749,0.20496415939,0.100038412429,0.293553342466,0.413000000001,0.45,0,0,2,988,4
0.817306684658,1.08579499369,0.133743704189,0.341447591874,0.410000000001,0.45,1,1,2,989,4
0.420700818536,0.115486271309,0.320695207997,1.01177149458,0.350000000001,0.45,3,3,2,990,4
0.299578245772,0.26583465783,1.05083770758,0.414127847007,0.452000000001,0.45,2,2,1,991,4
0.7760579018,1.0647394563,0.260343176071,0.317359697056,0.446000000001,0.45,1,1,2,992,4
0.263212893498,0.411658509688,0.517356580667,1.11126305525,0.421000000001,0.45,2,3,-1,993,4
0.290854531318,0.161244626747,0.504044805918,1.14350511951,0.422000000001,0.45,3,3,2,994,4
1.04614354831,0.180906712897,0.200330479959,0.149476033739,0.378000000001,0.45,0,0,2,995,4
0.201162951211,0.089688707574,1.02902668817,0.231073515184,0.404000000001,0.45,2,2,2,996,4
1.19783817619,0.0447370866683,0.0795057901354,0.297793892924,0.379000000001,0.45,0,0,2,997,4
0.477911394045,0.100110280619,0.216935865701,1.05429860726,0.329000000001,0.45,3,3,2,998,4
0.512866719234,1.05208092768,0.216292174849,0.210530501063,0.382000000001,0.45,1,1,2,999,4
1.1531682526,0.0743613321644,0.358532289362,0.332631272502,0.397000000001,0.45,0,0,2,1000,4
0.612893736193,1.21657325846,0.271918815702,0.293913353315,0.423000000001,0.45,1,1,2,1001,4
0.290656418779,0.0917299229494,1.10701719232,0.309058765568,0.350000000001,0.45,2,2,2,1002,4
0.264971476842,0.0976798255786,0.262880952491,1.08963933051,0.287000000001,0.45,3,3,2,1003,4
0.365271588973,1.0485781494,0.17844139354,0.189331317857,0.318000000001,0.45,2,1,-1,1004,4
0.19373591816,1.04258583831,0.158397897696,0.193397480931,0.314000000001,0.45,1,1,2,1005,4
0.170019828188,0.512570459412,0.738371577064,1.00229094812,0.432000000001,0.45,3,3,2,1006,4
0.140384664429,1.09814896413,0.10305500881,0.229567980503,0.455000000001,0.45,1,1,1,1007,4
1.00570942321,0.225218831158,0.135396669166,0.368690710306,0.379000000001,0.45,0,0,2,1008,4
0.249377046879,0.179485130914,1.07026606879,0.381743261588,0.429000000001,0.45,2,2,2,1009,4
1.07064766987,0.263776814471,0.214165020669,0.25132008734,0.400000000001,0.45,0,0,2,1010,4
0.442705995131,0.124818923122,0.250450730005,1.00049650179,0.322000000001,0.45,3,3,2,1011,4
1.13363818465,0.214493219111,0.190542927129,0.209121231855,0.321000000001,0.45,0,0,2,1012,4
0.445338856984,0.11577831506,1.0818343767,0.375776288954,0.352000000001,0.45,2,2,2,1013,4
0.457127387978,1.10270458974,0.18743399716,0.229910753385,0.336000000001,0.45,1,1,2,1014,4
0.202004500838,0.156988759529,1.05805361113,0.362878854851,0.323000000001,0.45,3,2,-1,1015,4
0.153599125892,0.0946212447811,1.06023618456,0.28991801813,0.317000000001,0.45,2,2,2,1016,4
0.210553236839,0.0959333080665,0.231678921904,1.17041217053,0.397000000001,0.45,3,3,2,1017,4
1.02868957087,0.124746309603,0.105647317777,0.259761494624,0.425000000001,0.45,1,0,-1,1018,4
1.21078854013,0.132961361564,0.1520399627,0.3353611733,0.401000000001,0.45,0,0,2,1019,4
0.184132863091,0.131086061659,0.202140740715,1.02634270431,0.384000000001,0.45,3,3,2,1020,4
1.01485367056,0.157144467875,0.130825565624,0.263637287195,0.417000000001,0.45,0,0,2,1021,4
0.209149753072,1.10148391541,0.180962775052,0.335677860188,0.427000000001,0.45,1,1,2,1022,4
0.178155375343,0.12011313033,1.04388340912,0.281605364998,0.457000000001,0.45,2,2,1,1023,4
1.07182550424,0.067811938607,0.0800288525681,0.257209842987,0.420000000001,0.45,0,0,2,1024,4
0.128179730065,1.11422429915,0.65048836753,0.303653825823,0.459000000001,0.45,1,1,1,1025,4
0.100656578276,0.20664481539,1.01212152416,0.297918836057,0.416000000001,0.45,2,2,2,1026,4
0.103169301201,0.148376535484,0.259896775262,1.13953466579,0.356000000001,0.45,3,3,2,1027,4
0.403597952684,0.262676316597,1.0599682984,0.574703438985,0.500000000001,0.45,2,2,1,1028,4
0.419389289085,1.00432790789,0.233486061093,0.332939985755,0.413000000001,0.45,1,1,2,1029,4
0.123630065018,0.151642988342,0.525984554419,1.03347464135,0.402000000001,0.45,3,3,2,1030,4
0.204635500638,1.0563369538,0.118787798059,0.343830902902,0.425000000001,0.45,1,1,2,1031,4
0.385900779971,1.05039445174,0.179442318015,0.386655464965,0.406000000001,0.45,0,1,-1,1032,4
0.388995189322,0.194308994228,0.177290993414,1.20496774681,0.369000000001,0.45,2,3,-1,1033,4
1.01124008145,0.283275783219,0.360669510564,0.232451494171,0.409000000001,0.45,0,0,2,1034,4
0.346248310284,0.101313413581,1.01688970966,0.250921102059,0.356000000001,0.45,3,2,-1,1035,4
1.04823707983,0.182958321466,0.17921382363,0.24967386964,0.435000000001,0.45,0,0,2,1036,4
0.169874888009,1.02018018463,0.182049314982,0.359196460787,0.441000000001,0.45,1,1,2,1037,4
0.129302119236,0.164997292162,0.231749124174,1.04175816072,0.353000000001,0.45,3,3,2,1038,4
0.153456636517,0.114306131064,1.19934163665,0.319519587866,0.423000000001,0.45,2,2,2,1039,4
0.141191552244,1.20710427173,0.174803886499,0.19171480894,0.367000000001,0.45,1,1,2,1040,4
0.190035889004,0.199937242373,1.05664910487,0.744208596419,0.454000000001,0.45,2,2,1,1041,4
0.182102205166,0.120202755491,0.721845415989,1.15152705756,0.422000000001,0.45,3,3,2,1042,4
1.14132030631,0.238084478284,0.305428445241,0.427577807631,0.373000000001,0.45,1,0,-1,1043,4
1.16723616778,0.350666532259,0.201954585606,0.257615082813,0.366000000001,0.45,0,0,2,1044,4
0.274920829453,0.11131556575,1.0071250812,0.286635241979,0.361000000001,0.45,3,2,-1,1045,4
1.12786940921,0.212611409336,0.220349479323,0.233413058993,0.448000000001,0.45,0,0,2,1046,4
0.253242662763,0.0914627674554,1.06770591765,0.284965413798,0.397000000001,0.45,2,2,2,1047,4
1.00622599579,0.121895003361,0.240598519831,0.291902269656,0.402000000001,0.45,0,0,2,1048,4
0.385829757328,0.163065033406,1.05343682801,0.414171335115,0.445000000001,0.45,2,2,2,1049,4
0.444755423305,1.13653638028,0.177374229836,0.300449716426,0.432000000001,0.45,1,1,2,1050,4
0.195535793965,0.223103054702,0.268684040744,1.09662987983,0.337000000001,0.45,3,3,2,1051,4
0.22622903146,0.172954522055,1.09960920518,0.436939636618,0.481000000001,0.45,2,2,1,1052,4
0.202273054964,0.107505497039,0.351861657946,1.14522766038,0.443000000001,0.45,3,3,2,1053,4
1.03620538567,0.177459862789,0.29408497243,0.286405050004,0.368000000001,0.45,1,0,-1,1054,4
1.13369568471,0.156298108195,0.246940147853,0.359621189033,0.336000000001,0.45,0,0,2,1055,4
0.151896253801,0.112948945654,0.290222637129,1.15687675128,0.313000000001,0.45,3,3,2,1056,4
1.00480392674,0.118989186234,0.174458801136,0.330618766649,0.360000000001,0.45,0,0,2,1057,4
0.422015076977,1.07857435091,0.198803600231,0.455287804777,0.477000000001,0.45,1,1,1,1058,4
0.27451183415,0.1172272251,1.09895879045,0.475915224679,0.449000000001,0.45,2,2,2,1059,4
1.00943176666,0.100880838069,0.161066295514,0.271789778049,0.447000000001,0.45,0,0,2,1060,4
0.275340839535,0.11067032634,0.18516702958,1.12547635135,0.334000000001,0.45,3,3,2,1061,4
0.389424402509,0.123378814485,1.06904350181,0.404535594308,0.349000000001,0.45,2,2,2,1062,4
0.460828707521,1.00260192809,0.220488119879,0.236239143079,0.386000000001,0.45,1,1,2,1063,4
0.441974134764,0.127407252047,0.244800470808,1.02360376107,0.369000000001,0.45,2,3,-1,1064,4
0.28748841999,0.160213470204,0.351748939841,1.24932759024,0.375000000001,0.45,3,3,2,1065,4
1.07562740274,0.161742162873,0.21118993674,0.192302805083,0.373000000001,0.45,1,0,-1,1066,4
0.107149537446,0.0882045187029,0.407367927508,1.07453755013,0.397000000001,0.45,3,3,2,1067,4
1.02430205169,0.356253775054,0.270767845379,0.237415013029,0.442000000001,0.45,0,0,2,1068,4
0.25132600381,1.04446810999,0.281703613588,0.303442693569,0.393000000001,0.45,1,1,2,1069,4
1.07868543548,0.200570923784,0.536827948987,0.331369193166,0.517000000001,0.45,0,0,1,1070,4
0.289163661855,0.0991924756506,1.08927915136,0.36782448188,0.414000000001,0.45,2,2,2,1071,4
1.11969593169,0.181892426493,0.15134877654,0.215832668714,0.450000000001,0.45,0,0,1,1072,4
0.400103167657,1.0877472952,0.21489588736,0.343566913255,0.457000000001,0.45,1,1,1,1073,4
0.306687319174,0.229046269723,1.1061376057,0.387430321955,0.390000000001,0.45,2,2,2,1074,4
0.326975828589,0.107861046216,0.891085356623,1.07389024649,0.364000000001,0.45,3,3,2,1075,4
0.218929396339,0.100512032029,1.01100698811,0.251605698168,0.435000000001,0.45,2,2,2,1076,4
0.223630661129,1.02281001594,0.133507218186,0.15870747201,0.416000000001,0.45,1,1,2,1077,4
0.0966307137797,0.487041374258,0.226269907626,1.06353190094,0.379000000001,0.45,3,3,2,1078,4
0.0907089833173,1.00385938711,0.0857858519277,0.214217139073,0.418000000001,0.45,1,1,2,1079,4
1.11872834016,0.14529499814,0.0590580562141,0.257988690657,0.336000000001,0.45,0,0,2,1080,4
0.361074469486,0.151226710879,1.09331595653,0.422324498175,0.380000000001,0.45,2,2,2,1081,4
1.0862135604,0.176261352154,0.279193095576,0.276858289222,0.343000000001,0.45,0,0,2,1082,4
0.53032794186,0.216479358488,0.330957240823,1.04909983092,0.347000000001,0.45,3,3,2,1083,4
1.07150668971,0.22485357891,0.221450191011,0.264141024563,0.361000000001,0.45,0,0,2,1084,4
0.191970297031,1.00275876944,0.235513845169,0.385549852572,0.504000000001,0.45,1,1,1,1085,5
0.398399997944,0.136849438697,1.02681105055,0.309672713979,0.299000000001,0.45,2,2,2,1086,5
1.10825611347,0.2397010591,0.232802405576,0.291666318852,0.406000000001,0.45,0,0,2,1087,5
0.248358978356,0.0788267046323,0.48880344093,1.0367489581,0.350000000001,0.45,3,3,2,1088,5
0.402638605495,0.137043332331,1.08833914621,0.22558845344,0.363000000001,0.45,2,2,2,1089,5
0.433834764419,0.158577289901,0.404803540185,1.0212121223,0.382000000001,0.45,3,3,2,1090,5
1.12121904088,0.387972178351,0.428042595988,0.243185358344,0.371000000001,0.45,0,0,2,1091,5
0.274621504571,0.241899258021,1.06795992719,0.307953664588,0.315000000001,0.45,2,2,2,1092,5
0.977688391285,1.00525631978,0.247925715961,0.485062086738,0.422000000001,0.45,1,1,2,1093,5
0.36248765355,0.121026949546,1.01658964922,0.299191279708,0.332000000001,0.45,3,2,-1,1094,5
0.560253004174,1.0486075566,0.258165012089,0.35419085288,0.404000000001,0.45,1,1,2,1095,5
1.02695920976,0.326223581136,0.179377869733,0.36527291557,0.479000000001,0.45,0,0,1,1096,5
0.439297393306,1.13708752888,0.285519241838,0.332020928309,0.489000000001,0.45,1,1,1,1097,5
0.422231608985,0.0951151168131,1.02108691053,0.331077760364,0.342000000001,0.45,2,2,2,1098,5
0.519127061621,0.238807341265,0.407472569474,1.00595945934,0.301000000001,0.45,3,3,2,1099,5
1.01671402302,0.560866460461,0.248052098036,0.244888481559,0.316000000001,0.45,0,0,2,1100,5
0.258166463116,0.0978100752784,1.02445635389,0.338579215838,0.342000000001,0.45,2,2,2,1101,5
0.724729293484,1.02570309627,0.333561618383,0.321188781584,0.341000000001,0.45,0,1,-1,1102,5
0.396852426862,0.15794530277,0.259367199399,0.323399178096,0.7,0.45,3,-1,0,1104,5
0.407404631524,0.134878357391,0.240669005211,1.14211628757,0.0780000000006,0.45,2,3,-1,1104,5
0.866346035543,1.1532169052,0.107431739207,0.235302977099,0.410000000001,0.45,1,1,2,1105,5
0.275370826725,0.126473348208,0.453035641257,1.05206393451,0.449000000001,0.45,3,3,2,1106,5
0.924126460061,1.03097228888,0.389627804869,0.404431014055,0.439000000001,0.45,1,1,2,1107,5
1.06753767589,0.214279646186,0.233071000521,0.236536441586,0.435000000001,0.45,0,0,2,1108,5
0.63825952246,1.02916278671,0.313626920297,0.302270789936,0.532000000001,0.45,1,1,1,1109,5
1.03693281029,0.265540000914,0.115122157512,0.197362044678,0.466000000001,0.45,0,0,1,1110,5
0.245581322656,0.105606786423,0.10369219576,1.04249084671,0.361000000001,0.45,3,3,2,1111,5
0.24283882966,0.248706176287,0.299098727717,1.01240589887,0.421000000001,0.45,2,3,-1,1112,5
0.438588914161,0.20487519947,0.480571723266,1.03544445355,0.481000000001,0.45,3,3,1,1113,5
1.01862605068,0.21389834034,0.119545629917,0.21303815489,0.497000000001,0.45,0,0,1,1114,5
0.248577322622,0.236121125879,1.06711895483,0.223832502756,0.366000000001,0.45,2,2,2,1115,5
1.01982719292,0.584880031745,0.238348509196,0.202064453142,0.448000000001,0.45,0,0,2,1116,5
0.306424931273,1.04796261719,0.743465583621,0.189166525411,0.555000000001,0.45,1,1,1,1117,5
0.345401390396,0.214158558699,1.08016829898,0.189312569808,0.429000000001,0.45,2,2,2,1118,5
1.04456222314,0.288924557238,0.25183016201,0.183790260036,0.359000000001,0.45,1,0,-1,1119,5
0.299011027,0.256769119144,0.223963482461,1.02960829785,0.398000000001,0.45,3,3,2,1120,5
0.244023948174,1.0149000077,0.204276372581,0.257800192247,0.410000000001,0.45,1,1,2,1121,5
0.105525732662,0.242213130362,1.07632301292,0.337661629855,0.321000000001,0.45,3,2,-1,1122,5
1.05457898216,0.359502243563,0.245046022989,0.286022976374,0.438000000001,0.45,0,0,2,1123,5
0.177029355164,0.527601554024,1.14393361543,0.475599164974,0.499000000001,0.45,2,2,1,1124,5
1.11752878211,0.205077482668,0.159243513193,0.209958245407,0.447000000001,0.45,0,0,2,1125,5
0.341821382244,0.2300528786,0.256431098164,1.0792346626,0.380000000001,0.45,3,3,2,1126,5
0.293757952237,0.30803299418,1.00709591973,0.205246883155,0.425000000001,0.45,2,2,2,1127,5
0.184298468916,0.271848139063,0.399498670954,1.0493708386,0.457000000001,0.45,3,3,1,1128,5
0.175505046998,1.19141527356,0.289520293692,0.220449878199,0.474000000001,0.45,1,1,1,1129,5
1.04401272309,0.235493056964,0.214384637763,0.184698362313,0.359000000001,0.45,0,0,2,1130,5
1.08895624077,0.298627544854,0.458052438026,0.244811418557,0.455000000001,0.45,1,0,-1,1131,5
0.130367595916,0.212921418964,1.02810255663,0.172843788054,0.415000000001,0.45,2,2,2,1132,5
0.26568458337,1.24753816518,0.281182875416,0.180902713583,0.372000000001,0.45,1,1,2,1133,5
1.0847891902,0.287349094046,0.242874430124,0.239508381958,0.373000000001,0.45,0,0,2,1134,5
0.423375332123,0.3490794175,0.668616552985,1.01398121529,0.406000000001,0.45,2,3,-1,1135,5
0.245633488269,0.202267706691,0.639359256036,1.04212855834,0.402000000001,0.45,3,3,2,1136,5
0.161721285515,0.188423936788,1.03706918234,0.162866888691,0.387000000001,0.45,2,2,2,1137,5
1.01309024335,0.944847575591,0.30416418965,0.200478354948,0.454000000001,0.45,0,0,1,1138,5
0.169958491965,0.0819831975041,0.291062635806,1.01635920076,0.418000000001,0.45,3,3,2,1139,5
1.20329917322,0.17126334688,0.198742864268,0.192266736854,0.373000000001,0.45,0,0,2,1140,5
1.03309568623,0.0853976617652,0.317027128975,0.208142983866,0.396000000001,0.45,1,0,-1,1141,5
0.144029224455,0.100789219222,1.04892510352,0.256178324496,0.457000000001,0.45,2,2,1,1142,5
0.249930463464,1.0292138944,0.150968141409,0.128270890272,0.421000000001,0.45,1,1,2,1143,5
0.33715980441,0.0623323289287,0.129868581117,1.12723406467,0.444000000001,0.45,3,3,2,1144,5
0.684442726421,1.15275075882,0.148218735383,0.164359835839,0.524000000001,0.45,1,1,1,1145,5
0.227741824991,0.133488173659,1.04532750681,0.229275428881,0.421000000001,0.45,2,2,2,1146,5
0.213787870525,0.0739932340338,0.279460971539,1.02082402956,0.415000000001,0.45,3,3,2,1147,5
1.20510231326,0.236903881515,0.206229959765,0.125374673642,0.384000000001,0.45,0,0,2,1148,5
0.150721555049,0.124441586949,1.04540321207,0.205620519323,0.413000000001,0.45,2,2,2,1149,5
1.10126367744,0.108187508288,0.339389864113,0.186668858228,0.458000000001,0.45,0,0,1,1150,5
0.239080728385,0.171276403836,0.450208765725,1.07081860395,0.446000000001,0.45,3,3,2,1151,5
0.373304241079,0.183936006631,1.04775448812,0.311585131029,0.436000000001,0.45,2,2,2,1152,5
0.466649160862,1.10945359729,0.239836141076,0.215648193609,0.453000000001,0.45,1,1,1,1153,5
0.422997625887,0.182422391419,0.218986711279,1.09223666874,0.416000000001,0.45,3,3,2,1154,5
1.03230251434,0.270246786695,0.252180559414,0.147747603979,0.367000000001,0.45,1,0,-1,1155,5
1.00556659661,0.518798242316,0.189223890709,0.180806185267,0.429000000001,0.45,0,0,2,1156,5
0.297549817093,1.11267972958,0.19502952197,0.166377254255,0.429000000001,0.45,1,1,2,1157,5
0.302589667658,0.160679398989,1.10239458675,0.183455682152,0.324000000001,0.45,2,2,2,1158,5
0.300059888172,0.143748620416,0.35991846494,1.09268522482,0.327000000001,0.45,3,3,2,1159,5
1.06306027104,0.260678459777,0.165203189292,0.165195354739,0.457000000001,0.45,0,0,1,1160,5
0.295936227261,0.186096336923,0.33907589373,1.04591527595,0.449000000001,0.45,3,3,2,1161,5
0.369335412327,0.298503675552,1.05114520575,0.244079187826,0.454000000001,0.45,2,2,1,1162,5
1.07411491912,0.150902203077,0.211658299572,0.134913443548,0.487000000001,0.45,0,0,1,1163,5
0.261258771793,0.14765389412,1.0228733333,0.157059764162,0.438000000001,0.45,2,2,2,1164,5
0.553489936016,1.06811333484,0.259705229631,0.182281861148,0.444000000001,0.45,1,1,2,1165,5
0.267001125321,0.119033705918,0.867356185909,1.13542276304,0.483000000001,0.45,3,3,1,1166,5
0.522819934198,1.02903284153,0.202781720216,0.13988198241,0.519000000001,0.45,1,1,1,1167,5
1.06924979056,0.179224885762,0.155834999176,0.156977763856,0.450000000001,0.45,0,0,1,1168,5
0.192558044675,1.07795449598,0.186074531256,0.12963715192,0.545000000001,0.45,1,1,1,1169,5
0.414241672882,0.369966370902,0.358910193191,1.09735582747,0.504000000001,0.45,3,3,1,1170,5
1.01439097675,0.384944477171,0.351873466574,0.275784866058,0.419000000001,0.45,0,0,2,1171,5
0.403089703474,0.279925873156,1.11878171651,0.277081734204,0.322000000001,0.45,2,2,2,1172,5
0.410133494196,1.05034285677,0.263063468569,0.239008713792,0.401000000001,0.45,0,1,-1,1173,5
0.342856055704,0.0946319153936,0.303225657203,1.07372467574,0.398000000001,0.45,3,3,2,1174,5
0.337523751064,0.178314114612,1.03767671301,0.257018001368,0.452000000001,0.45,2,2,1,1175,5
0.4351444438,1.02727598164,0.152527188856,0.274151861718,0.534000000001,0.45,1,1,1,1176,5
1.082250097,0.228934003157,0.181000296394,0.122099759227,0.422000000001,0.45,0,0,2,1177,5
0.461751118295,1.01627895216,0.25888302232,0.193752051191,0.460000000001,0.45,1,1,1,1178,5
0.350352859359,0.234983406359,1.14843855255,0.234605184491,0.360000000001,0.45,2,2,2,1179,5
0.401165073855,0.202060994525,0.408959253807,1.00924459558,0.374000000001,0.45,3,3,2,1180,5
0.46347593768,1.01489566533,0.273999568996,0.250432339326,0.386000000001,0.45,1,1,2,1181,5
0.27383398802,0.157609747283,0.852185694497,1.0488065548,0.417000000001,0.45,3,3,2,1182,5
1.00049376918,0.199523094389,0.258705344486,0.197478117672,0.414000000001,0.45,0,0,2,1183,5
0.337824608234,0.166211883744,1.00600027501,0.287586859003,0.407000000001,0.45,2,2,2,1184,5
