force_0,force_1,force_2,force_3,rt,rt_threshold,target_finger,selected_finger,score,trial,run
0.146223597011,1.00817094411,0.263161873475,0.172566671881,0.52,0.45,1,1,1,0,0
0.279990608355,0.50721266088,1.01184356443,0.181514164501,0.519,0.45,2,2,1,1,0
0.496951799963,0.645888681284,0.598093295118,1.00836648401,0.645,0.45,3,3,1,2,0
0.53783551525,0.630545965522,0.54542605879,1.01732658976,0.069,0.45,0,3,-1,3,0
0.173206204298,0.501566498739,1.02552190532,0.450592008506,0.549,0.45,2,2,1,4,0
1.02700415601,0.53190852247,0.452636072237,0.465242089559,0.698,0.45,0,0,1,5,0
0.33649816078,0.584494273402,0.422091300355,1.14488627049,0.625,0.45,3,3,1,6,0
0.351693946357,0.535673301085,1.05420708816,0.359238067686,0.586,0.45,2,2,1,7,0
0.314543757616,1.06351685864,0.48776779471,0.415027882375,0.44,0.45,1,1,2,8,0
0.487703083391,0.512977050703,0.402418968518,0.625916133922,0.7,0.45,3,-1,0,10,0
0.488192597882,0.509346229724,0.334143650278,1.04565917094,0.266,0.45,1,3,-1,10,0
1.06060672503,0.473493642237,0.316957675862,0.437847333399,0.479,0.45,0,0,1,11,0
0.268645150127,1.06693595168,0.303624700935,0.4435923023,0.46,0.45,1,1,1,12,0
0.367659771744,0.619180291862,1.01209890299,0.311642706453,0.464,0.45,3,2,-1,13,0
1.00493036543,0.0682554477181,0.0953305536925,0.585611012433,0.612,0.45,0,0,1,14,0
0.303182731759,0.314089507724,0.177605130023,1.13434797056,0.516,0.45,2,3,-1,15,0
0.15789930071,-0.00396188281966,0.0372567512923,1.2862424268,0.614,0.45,3,3,1,16,0
0.192148186243,-0.00728508080277,1.26052914145,0.251619448329,0.541,0.45,2,2,1,17,0
1.51192238794,-0.00774950105758,0.0024699060337,0.163720361097,0.542,0.45,0,0,1,18,0
0.0964183881329,-0.00780687628256,0.0231241938908,1.04066538192,0.64,0.45,3,3,1,19,0
0.0813839939104,0.0882244126557,0.208340327503,0.174343927499,0.7,0.45,1,-1,0,21,0
0.0863429491107,1.39180249626,0.107924051463,0.173203071243,0.078,0.45,0,1,-1,21,0
0.0703959695086,1.08587008366,0.0162866724399,0.139935059209,0.679,0.45,1,1,1,22,0
0.070326022054,0.00794821904472,1.00868162595,0.103609254561,0.58,0.45,2,2,1,23,0
0.0632730148374,1.00309876128,0.00786239452453,0.0944717948623,0.677,0.45,1,1,1,24,0
0.0437409376632,0.00785656496017,1.01031568263,0.0731342397373,0.673,0.45,2,2,1,25,0
0.0395481856515,0.00781393678703,0.0156819036445,0.503585807943,0.7,0.45,3,-1,0,27,0
1.16046872094,0.00781267839589,0.0156281332611,0.0971432991535,0.698,0.45,0,0,1,27,0
-0.0233981413175,0.00781252147694,0.0156253714436,1.04429087977,0.697,0.45,3,3,1,28,0
-0.00476318149994,0.00781250261667,1.25175428536,0.12546415716,0.692,0.45,2,2,1,29,0
1.12715004768,0.00781250033887,-0.015560467555,0.0996339603193,0.667,0.45,0,0,1,30,0
0.0234637654011,0.171620094508,-0.0156221346766,0.0942293985039,0.7,0.45,1,-1,0,32,0
0.0234401698707,1.00219846051,-0.0156243964942,0.0658782536566,0.524,0.45,0,1,-1,32,0
1.01397581333,0.0131061991563,-0.0176510693626,0.0619732380578,0.136,0.45,2,0,-1,33,0
0.376847727811,1.13488082792,0.112018041547,0.0118554694842,0.66,0.45,1,1,1,34,0
0.44272309994,0.386792942888,0.22170278714,0.59925220302,0.7,0.45,3,-1,0,36,0
0.515012930274,0.408810332423,0.192837667172,1.07518386956,0.173,0.45,1,3,-1,36,0
0.557701963728,0.432861608825,0.245045505821,1.05452650708,0.534,0.45,3,3,1,37,0
1.02741658303,0.458187545949,0.216091230515,0.483446193039,0.526,0.45,0,0,1,38,0
0.353115281074,0.26992571213,1.10954684209,0.346768794542,0.451,0.45,2,2,1,39,0
0.454970004256,0.607371207374,1.04057060055,0.235631475513,0.449,0.45,3,2,-1,40,0
0.39397514068,0.416533072864,0.297655266935,1.01388542591,0.015,0.45,2,3,-1,41,0
1.14758749918,0.516618707014,0.218137919779,0.389315042802,0.488,0.45,0,0,1,42,0
0.266059339958,1.03309954085,0.201661536935,0.408501868308,0.411,0.45,1,1,2,43,0
0.429887256305,0.588897752597,1.07107774476,0.30348704344,0.606,0.45,2,2,1,44,0
0.324321294126,1.15910846235,0.999968012927,0.288450631981,0.077,0.45,1,1,2,45,0
1.07208302173,0.704636371557,0.153423586054,0.346944423583,0.482,0.45,0,0,1,46,0
0.50159557546,0.310724675648,0.297980316688,1.01875182373,0.682,0.45,3,3,1,47,0
0.360365149385,1.03822751674,0.747443382377,0.323529671408,0.662,0.45,1,1,1,48,0
0.469379572553,0.126831600274,1.075653885,0.331026600693,0.545,0.45,2,2,1,49,0
1.10996568403,0.79658558757,0.208294951245,0.314449300977,0.504,0.45,0,0,1,50,0
0.424037990243,0.113433480729,0.377216624169,0.9842882397,0.7,0.45,3,-1,0,52,0
0.455391696039,0.116943838337,0.258740330571,1.05532027653,0.043,0.45,0,3,-1,52,0
0.16031068736,0.0114699018422,1.04024700281,0.460871797044,0.55,0.45,2,2,1,53,0
0.125390549969,0.008068340277,0.00262132194164,0.896473870422,0.7,0.45,3,-1,0,55,0
0.125963246945,0.00805039725629,0.00189663382579,1.00678889832,0.043,0.45,2,3,-1,55,0
0.106769003287,0.664489519897,0.408762896548,0.130336154011,0.7,0.45,1,-1,0,57,0
0.0800358951112,0.00577065776093,0.0291362595663,0.789494677279,0.7,0.45,3,-1,0,58,0
0.0763941536752,0.00118177133839,0.0164645538054,1.03131094078,0.141,0.45,1,3,-1,58,0
1.03359581425,8.55816271628e-06,0.00794399985541,0.0957263672471,0.648,0.45,0,0,1,59,0
0.0758107219269,0.760383994291,0.0148018872704,0.113155876516,0.7,0.45,1,-1,0,61,0
0.0699230041819,1.04184765472,0.00629184975344,0.113709267632,0.068,0.45,0,1,-1,61,0
0.0553617810472,0.0234683942706,1.14357118487,0.139167663847,0.523,0.45,2,2,1,62,0
0.0625226226629,0.0234397459294,0.0158871705867,1.02973435085,0.662,0.45,3,3,1,63,0
0.0848005232255,0.0234377323793,0.818633194684,0.131747786226,0.7,0.45,2,-1,0,65,0
0.0808434913387,0.0234376727369,1.00217725859,0.122307752378,0.109,0.45,0,2,-1,65,0
0.456939771366,0.0676623009741,0.17221696118,1.08147629155,0.59,0.45,3,3,1,66,0
0.0581125907046,0.0272734020119,1.11112310225,0.157832998092,0.543,0.45,1,2,-1,67,0
0.0659708110237,0.0156316801794,1.05634675487,0.107961764146,0.635,0.45,2,2,1,68,0
0.0630077003206,1.18081621901,0.0158273556914,0.0954054913476,0.561,0.45,1,1,1,69,0
0.0582633390515,0.0156501972537,0.015631872645,1.09076009801,0.612,0.45,3,3,1,70,0
1.20957897789,0.00896568472484,0.0156261875945,0.0569564388979,0.487,0.45,0,0,1,71,0
-0.0339899294036,1.15481693957,0.384676797055,0.107903891559,0.628,0.45,1,1,1,72,0
-0.00761643126119,1.09313244868,0.120582374131,0.128996881017,0.025,0.45,3,1,-1,73,0
0.0390159593138,0.0314436562771,0.203205638185,0.096773343324,0.7,0.45,2,-1,0,75,0
1.01273463282,0.331100740289,0.620318518718,0.0924765734285,0.579,0.45,0,0,1,75,0
0.275439716264,0.587853758808,1.05678580516,0.0624763346808,0.479,0.45,2,2,1,76,0
0.576446033486,0.325990698517,0.392759437449,1.02492675918,0.481,0.45,3,3,1,77,0
1.19149920651,0.425010187484,0.405549669669,0.381858455697,0.465,0.45,0,0,1,78,0
0.54302066816,1.08480906388,0.411426828012,0.348801837235,0.374,0.45,1,1,2,79,0
0.517891569342,0.377574508099,1.02479530195,0.245581102454,0.578,0.45,2,2,1,80,0
1.28778689218,0.384879556552,0.423259405651,0.209178206915,0.448,0.45,1,0,-1,81,0
1.0946567658,0.373692054418,0.245015520939,0.21515035275,0.479,0.45,0,0,1,82,0
0.495868556359,0.500228188374,0.296833342921,1.02760871763,0.587,0.45,3,3,1,83,0
0.362085711845,1.0258940756,0.171909319907,0.399446973944,0.572,0.45,1,1,1,84,0
0.553963430644,0.404420505884,0.10507938306,1.10108998358,0.577,0.45,3,3,1,85,0
1.01658118829,0.418443377902,0.199336954068,0.417087525995,0.529,0.45,0,0,1,86,0
0.529967260158,0.535101437506,1.00601235584,0.321787093368,0.7,0.45,2,-1,0,88,0
0.529967260158,0.535101437506,1.00601235584,0.321787093368,0.00500000000004,0.45,0,2,-1,88,0
0.450817371428,0.338656471281,0.543251005289,1.06752203181,0.685,0.45,3,3,1,89,0
0.396360750554,0.415403352213,1.01820230403,0.373632621392,0.662,0.45,2,2,1,90,0
0.363909219665,1.18278046959,0.368548002913,0.342504529873,0.539,0.45,1,1,1,91,0
1.0040681033,0.423377988416,0.296519396966,0.34518326458,0.496,0.45,0,0,1,92,0
0.503902209048,1.04336139404,0.467436435818,0.314513421504,0.645,0.45,1,1,1,93,0
0.514131498757,0.519191905343,1.02298830185,0.213076839327,0.597,0.45,2,2,1,94,0
0.590957614721,0.475498935042,0.36879629843,0.939339582442,0.7,0.45,3,-1,0,96,0
0.604866099186,0.475836395291,0.374478040415,1.0416579002,0.142,0.45,1,3,-1,96,0
0.559254644188,0.499397215125,0.818876994668,0.161163170715,0.7,0.45,2,-1,0,98,0
0.527069229384,0.560840653083,1.17391255657,0.164822658931,0.07,0.45,0,2,-1,98,0
0.327898213371,0.336726241723,1.08556083514,0.212757920804,0.449,0.45,3,2,-1,99,0
0.373004775781,0.168845984749,1.23590363752,0.803834708499,0.451,0.45,2,2,1,100,0
0.486615999932,0.476924260351,0.240928172104,1.06059867198,0.7,0.45,3,-1,0,102,0
0.486615999932,0.476924260351,0.240928172104,1.06059867198,0.015,0.45,0,3,-1,102,0
0.462229910393,0.231709165439,1.18553387245,0.303075245219,0.488,0.45,2,2,1,103,0
0.282064165571,1.06373876387,0.681940474984,0.253912277996,0.538,0.45,1,1,1,104,0
1.00024382926,0.478496437213,0.358800364575,0.286332145261,0.562,0.45,0,0,1,105,0
0.406637521861,1.08027136465,0.25735517852,0.244884713561,0.51,0.45,1,1,1,106,0
0.482972650756,0.453630301695,0.131807003254,0.930768374496,0.7,0.45,3,-1,0,108,0
0.481340511859,0.433924104395,0.103550397265,1.00610363634,0.099,0.45,1,3,-1,108,0
1.0204845617,0.382575822397,0.113485894281,0.437163787787,0.528,0.45,0,0,1,109,0
0.462938006514,0.326948302283,1.02990983899,0.485519566475,0.573,0.45,2,2,1,110,0
0.461930186126,0.412249403133,0.408490918322,1.0023296261,0.55,0.45,3,3,1,111,0
0.385157069026,0.390911371221,1.03950797345,0.324867068718,0.668,0.45,2,2,1,112,0
1.05130559744,0.339576681672,0.296445576957,0.302017964963,0.642,0.45,0,0,1,113,0
0.324413732424,0.394365956171,0.320274048633,1.02516016062,0.639,0.45,3,3,1,114,0
0.370634831446,0.905115516612,0.592971221339,0.343197594384,0.7,0.45,1,-1,0,116,0
0.379491709435,1.00958893137,0.559485101102,0.340997021791,0.054,0.45,2,1,-1,116,0
0.501127693078,1.00328996149,0.262910662869,0.344958209452,0.579,0.45,1,1,1,117,0
0.261468688904,0.381418799577,0.0858421012685,1.09480728803,0.555,0.45,3,3,1,118,0
1.01218730663,0.38056263723,0.217735452533,0.3430059435,0.526,0.45,0,0,1,119,0
0.350408492272,1.08699851027,0.167312668278,0.341714474537,0.52,0.45,1,1,1,120,0
1.04227649186,0.359674655208,0.302373174007,0.3366497279,0.661,0.45,0,0,1,121,0
0.290675786823,0.268093521763,0.980794730215,0.305880398815,0.7,0.45,2,-1,0,123,0
0.295986072923,0.276929292027,1.00405803973,0.316625007196,0.0570000000001,0.45,3,2,-1,123,0
0.3907583965,0.619715424527,0.801293047751,0.311569718589,0.7,0.45,2,-1,0,125,0
1.03049614942,0.403517484321,0.301728272115,0.256328396572,0.597,0.45,0,0,1,125,0
0.311257935733,0.318641371371,0.250301415292,0.900799715554,0.7,0.45,3,-1,0,127,0
1.0451207858,0.300334790933,0.195259758495,0.287944124306,0.636,0.45,0,0,1,127,0
0.143804296211,1.14937556678,0.524333280487,0.28170710259,0.61,0.45,1,1,1,128,0
0.228686692233,0.25632668575,0.748435923802,0.190553194854,0.7,0.45,2,-1,0,130,0
0.28956629707,1.07948182761,0.0425801557243,0.197645465499,0.675,0.45,1,1,1,130,0
0.349031844229,0.408421364671,0.101892226006,1.02180462695,0.7,0.45,3,-1,0,132,0
0.349031844229,0.408421364671,0.101892226006,1.02180462695,0.0180000000001,0.45,1,3,-1,132,0
0.485616787959,0.205082124976,0.596867336451,0.64969682927,0.7,0.45,2,-1,0,134,0
0.477733259818,0.218872133991,1.03998509989,0.447427081039,0.108,0.45,0,2,-1,134,0
1.02135443089,0.263491359283,0.180639606734,0.262667248079,0.217,0.45,3,0,-1,135,0
0.869967068706,0.188614792275,0.116560609209,0.233257208119,0.7,0.45,0,-1,0,137,0
1.01031609674,0.191420455619,0.121842100645,0.212399567706,0.178,0.45,2,0,-1,137,0
0.23771149768,0.0853717499471,0.231791246019,0.646066877591,0.7,0.45,3,-1,0,139,0
0.209059227832,0.0525970528802,0.187071746253,0.754736743918,0.7,0.45,1,-1,0,140,0
0.13188419203,0.155800037809,0.0117197286731,0.275215808719,0.7,0.45,3,-1,0,141,0
0.171691030151,0.0686654409237,0.0092991275048,1.01189952097,0.244,0.45,2,3,-1,141,0
0.126279897264,1.04898612098,0.108968811531,0.106935461852,0.541,0.45,1,1,1,142,0
1.11609798091,0.0740216712683,0.0357399418644,0.0930072814471,0.586,0.45,0,0,1,143,0
0.0955818908975,1.02464660915,0.0098615473234,0.151119437197,0.655,0.45,1,1,1,144,0
0.0828013905905,0.0469111832769,0.00801495300383,0.947233315242,0.7,0.45,3,-1,0,146,0
0.0848756363962,0.0468774164658,0.361205272578,0.173182482322,0.7,0.45,2,-1,0,147,0
1.24046538131,0.0468754413342,0.00644925868611,0.139249608958,0.565,0.45,0,0,1,147,0
0.0703836761895,0.0437469090865,1.09088047583,0.109409045659,0.63,0.45,2,2,1,148,0
0.0703173667609,0.0465467459846,0.000104453100949,1.17366587313,0.67,0.45,3,3,1,149,0
1.16159202572,0.0468291557858,1.04090675818e-05,0.0861965796096,0.62,0.45,0,0,1,150,0
0.0275101979268,1.16269686003,1.24033480553e-06,0.0858437545997,0.62,0.45,1,1,1,151,0
0.0287476391933,0.00791068339725,1.00317960516,0.0762894418073,0.504,0.45,2,2,1,152,0
0.0289394931194,1.12209811572,-0.00845607186922,0.0563085456344,0.7,0.45,1,-1,0,154,0
0.0289394931194,1.12209811572,-0.00845607186922,0.0563085456344,0.0190000000001,0.45,0,1,-1,154,0
0.421949491746,0.126342460611,0.0148180625207,0.823225770877,0.7,0.45,3,-1,0,156,0
0.390668070364,0.114549982774,-0.000153752661123,1.04677859293,0.107,0.45,1,3,-1,156,0
0.0307748076476,0.0146337889594,0.99160707442,0.133226717408,0.7,0.45,2,-1,0,158,0
0.0243737413174,0.0133048209883,1.01144992443,0.133145883297,0.0540000000001,0.45,0,2,-1,158,0
0.152317611167,0.17155923422,0.282975363423,0.551219758714,0.7,0.45,3,-1,0,160,0
0.156964119224,0.219175619388,0.313163994724,1.01764224288,0.191,0.45,2,3,-1,160,0
0.285522375669,0.388871903318,0.324528458819,0.296866792141,0.7,0.45,3,-1,0,162,0
0.278659539867,0.38716335625,0.337668602256,1.06448134282,0.145,0.45,0,3,-1,162,0
1.25014833687,0.311872588206,0.372785454191,0.387401591412,0.474,0.45,2,0,-1,163,0
0.146714414886,0.290297436295,0.452623278602,0.325067261137,0.7,0.45,1,-1,0,165,0
0.45088790141,1.01916486244,0.427194464773,0.312677141099,0.189,0.45,3,1,-1,165,0
0.257596817667,1.02571727912,0.22735011656,0.354702247316,0.661,0.45,1,1,1,166,0
1.00081101219,0.314620644474,0.188944743368,0.285368564801,0.686,0.45,0,0,1,167,0
0.315682385351,1.01686045397,0.159480455711,0.283651523173,0.7,0.45,1,-1,0,169,0
0.315682385351,1.01686045397,0.159480455711,0.283651523173,0.00400000000007,0.45,3,1,-1,169,0
0.338295003146,0.396859568621,0.613081550039,0.190141463864,0.7,0.45,2,-1,0,171,0
1.02881527814,0.406817777996,0.421263057884,0.193348319166,0.647,0.45,0,0,1,171,0
0.365682679582,0.396231417853,0.737136316125,0.194195983752,0.7,0.45,2,-1,0,173,0
0.414061845106,0.410468848775,0.367769059962,1.03210783938,0.696,0.45,3,3,1,173,0
1.01898219132,0.391348294161,0.356445637099,0.329351926255,0.619,0.45,0,0,1,174,0
0.323487799023,1.03699211074,0.259882748602,0.29585317131,0.598,0.45,1,1,1,175,0
0.983350141337,0.369471026811,0.240266694739,0.2847956714,0.7,0.45,0,-1,0,177,0
1.02337006156,0.362785419928,0.237081649386,0.285886680836,0.0400000000001,0.45,3,0,-1,177,0
0.386110620262,1.10019859436,0.204159418192,0.4798053952,0.594,0.45,1,1,1,178,0
0.30217844762,0.222778211501,1.03233945492,0.207030144995,0.688,0.45,2,2,1,179,0
0.364385008167,1.04610098024,0.237360346191,0.229367313539,0.588,0.45,1,1,1,180,0
0.342302185236,0.408432172692,0.255450599145,1.02523611049,0.595,0.45,3,3,1,181,0
1.0135127548,0.317285542487,0.119720721694,0.37150942491,0.682,0.45,0,0,1,182,0
0.353035155903,0.423025180357,1.04521207489,0.257822041532,0.659,0.45,2,2,1,183,0
1.01514734436,0.290048665141,0.182647282715,0.281204140411,0.663,0.45,0,0,1,184,0
0.373716091399,0.297914398075,0.16729036783,0.947221795169,0.7,0.45,3,-1,0,186,0
0.375681614689,0.297105905906,0.158856341998,1.05468226801,0.0360000000001,0.45,2,3,-1,186,0
0.935097395713,0.574425743767,0.271900710052,0.409943003817,0.7,0.45,1,-1,0,188,0
0.697759211563,1.01106806857,0.26133053668,0.400357296847,0.0490000000001,0.45,2,1,-1,188,0
0.360134121688,0.105593790638,0.43212848449,0.905355070438,0.7,0.45,3,-1,0,190,0
0.373504382067,0.121258251486,0.38771062486,1.0142058265,0.0230000000001,0.45,1,3,-1,190,0
1.01249604396,0.411531984907,0.24530184819,0.415476840738,0.538,0.45,0,0,1,191,0
0.347667823316,0.672521339257,0.249671410495,0.383446890733,0.7,0.45,1,-1,0,193,0
0.373559174944,0.364496160667,0.916239395593,0.375901152213,0.7,0.45,2,-1,0,194,0
1.01599034467,0.286698373694,0.277087266332,0.356919031114,0.586,0.45,0,0,1,194,0
0.300364903993,0.258306159664,0.458074194398,1.04347967758,0.562,0.45,3,3,1,195,0
1.02704892832,0.26017502195,0.142054452366,0.412892037288,0.608,0.45,0,0,1,196,0
0.261574558602,0.13673234363,0.926353282289,0.37041026272,0.7,0.45,2,-1,0,198,0
0.292907424044,0.118074899143,0.193230149659,1.04910608055,0.604,0.45,3,3,1,198,0
0.340316693716,0.203489076365,1.00688549459,0.454020671902,0.53,0.45,2,2,1,199,0
0.359941058989,0.843133095451,0.307584292198,0.382145715508,0.7,0.45,1,-1,0,201,0
0.197780109788,1.00377482652,0.284808224431,0.37314546981,0.118,0.45,0,1,-1,201,0
0.35526871659,0.936370454429,0.178427717165,0.389345413244,0.7,0.45,1,-1,0,203,0
0.326970616547,0.249277664973,0.172047501799,1.03595249161,0.615,0.45,3,3,1,203,0
0.140651530449,0.914416063084,0.297012601413,0.338392668932,0.7,0.45,1,-1,0,205,0
0.119168030087,1.06895239315,0.28841588608,0.335569055619,0.121,0.45,2,1,-1,205,0
1.01185208608,0.133766191845,0.139316815219,0.227384442531,0.7,0.45,0,-1,0,207,0
1.01185208608,0.133766191845,0.139316815219,0.227384442531,0.0100000000001,0.45,3,0,-1,207,0
0.938607812443,0.113998793343,0.069361777845,0.113620591507,0.7,0.45,0,-1,0,209,0
1.01406810427,0.118017868202,0.0762101853002,0.108982401156,0.121,0.45,2,0,-1,209,0
0.157042308198,0.0604922082291,0.0328785267984,0.210644964518,0.7,0.45,3,-1,0,211,0
0.15237886823,0.991051962707,0.0406588836086,0.181324739652,0.7,0.45,1,-1,0,212,0
0.150039800011,1.02424711289,0.0390480870446,0.170015774923,0.0250000000001,0.45,3,1,-1,212,0
0.164096501777,0.0410377335718,0.718597853211,0.201117089072,0.7,0.45,2,-1,0,214,0
0.135600390481,0.0323522535653,0.0332721403795,0.146883791746,0.7,0.45,1,-1,0,215,0
1.14181195583,0.0444106621851,0.00830409632381,0.137025914278,0.604,0.45,0,0,1,215,0
0.0313473511953,0.967598781754,0.0175811860622,0.134859527234,0.7,0.45,1,-1,0,217,0
0.216340750946,0.120827622477,0.787942782296,0.16487129197,0.7,0.45,2,-1,0,218,1
0.207889241393,0.156295854704,1.01679411491,0.16473063179,0.0510000000001,0.45,3,2,-1,218,1
1.02165435123,0.639685699408,0.254849402611,0.4194396837,0.663,0.45,1,0,-1,219,1
1.02536994986,0.0514777166437,0.226213546057,0.285368099045,0.7,0.45,0,-1,0,221,1
1.02536994986,0.0514777166437,0.226213546057,0.285368099045,0.00700000000009,0.45,1,0,-1,221,1
0.339838197897,0.172145241561,0.169398070766,1.11821047751,0.581,0.45,3,3,1,222,1
1.06839697828,0.263744971176,0.257784310584,0.382636593159,0.553,0.45,0,0,1,223,1
0.416224224134,0.195254695011,0.223538155661,1.02510724035,0.694,0.45,3,3,1,224,1
0.267036176767,0.254790369961,1.06530252512,0.395535865651,0.639,0.45,2,2,1,225,1
0.332910602277,1.03907836202,0.250022020075,0.35975291217,0.637,0.45,1,1,1,226,1
0.237244549954,0.0862269127908,1.03516721496,0.365521406465,0.582,0.45,2,2,1,227,1
1.07739149328,0.225782979653,0.258052087823,0.303144792691,0.557,0.45,0,0,1,228,1
0.219802607027,0.13516639489,1.08702266182,0.35427249453,0.53,0.45,2,2,1,229,1
0.364106388167,1.01139238718,0.259165024919,0.264120699161,0.577,0.45,1,1,1,230,1
0.320678049863,0.217165620957,0.3208907605,0.728765494072,0.7,0.45,3,-1,0,232,1
0.377224517199,0.182845593436,0.145021985662,1.00542831907,0.305,0.45,0,3,-1,232,1
0.310928769046,0.0562223849994,0.0692934775199,1.02938669522,0.538,0.45,3,3,1,233,1
0.233254628241,0.633749674797,1.00243035372,0.246626858734,0.63,0.45,1,2,-1,234,1
1.01576869955,0.0947454885697,0.0260843062477,0.144091176583,0.7,0.45,0,-1,0,236,1
1.01576869955,0.0947454885697,0.0260843062477,0.144091176583,0.0190000000001,0.45,1,0,-1,236,1
0.238915668755,0.0781854002883,1.03158768398,0.121228667715,0.515,0.45,2,2,1,237,1
1.06507925927,0.128610373497,0.373412528093,0.163820304074,0.604,0.45,0,0,1,238,1
0.25328299506,0.183495947658,1.00868767616,0.161642741818,0.563,0.45,2,2,1,239,1
0.402979683539,0.184760394215,0.173397635542,0.837771373648,0.7,0.45,3,-1,0,241,1
0.280910554846,0.149246582619,1.17656950124,0.324525724443,0.581,0.45,2,2,1,241,1
1.02865856369,0.249352376576,0.277398567593,0.263786557302,0.531,0.45,0,0,1,242,1
0.326610705171,0.194745316109,0.255464209899,0.872886247309,0.7,0.45,3,-1,0,244,1
0.189439183852,0.252384551015,1.14454775113,0.235055646072,0.619,0.45,1,2,-1,244,1
0.12690712421,1.17767295521,0.516851670729,0.182840236655,0.113,0.45,0,1,-1,245,1
0.152754763583,1.11108176645,0.0964339187316,0.120006151394,0.469,0.45,1,1,1,246,1
0.2308972749,0.167065836102,1.02943598051,0.125571691772,0.496,0.45,3,2,-1,247,1
0.322671656075,0.23298094894,0.154071216124,0.272399227886,0.7,0.45,2,-1,0,249,1
0.244111957654,0.147757315847,1.08987825838,0.227169180011,0.224,0.45,3,2,-1,249,1
1.41103403942,0.16230681827,0.327627077789,0.301973232187,0.509,0.45,0,0,1,250,1
0.170483276188,1.07497071497,0.724132733457,0.185506718367,0.63,0.45,2,1,-1,251,1
0.176634688257,0.583699462839,0.0683849028742,0.220659731781,0.7,0.45,1,-1,0,253,1
0.170416691363,1.04311435452,0.057376645028,0.219077706005,0.0710000000001,0.45,2,1,-1,253,1
0.270597555471,0.147613267322,0.232673159196,1.08254514364,0.476,0.45,3,3,1,254,1
1.1852007705,0.224375423638,0.293008601765,0.351588601141,0.495,0.45,0,0,1,255,1
0.230727211953,1.19571740824,0.212866827457,0.349600580087,0.569,0.45,1,1,1,256,1
0.21846084434,0.19908159618,0.125255778925,1.10040208952,0.567,0.45,3,3,1,257,1
0.219654353168,1.05606306941,0.174365589962,0.385261436689,0.669,0.45,1,1,1,258,1
1.43009925709,0.30085543826,0.13054670763,0.339652902876,0.571,0.45,0,0,1,259,1
0.272185477475,0.208645637887,0.148599333193,1.00811566656,0.664,0.45,3,3,1,260,1
0.295850664159,0.333658331975,0.858551829426,0.378346895414,0.7,0.45,2,-1,0,262,1
0.297894030695,1.02192951637,0.212703261642,0.366173364337,0.661,0.45,1,1,1,262,1
0.349823438938,0.0797453570227,1.04936212321,0.31764425522,0.633,0.45,2,2,1,263,1
1.11501966332,0.227545505521,0.185441672336,0.333001378536,0.533,0.45,0,0,1,264,1
0.335864693147,0.29500957195,0.880259444386,0.283878408355,0.7,0.45,2,-1,0,266,1
0.317453601214,0.28102248485,1.18660376176,0.278862122464,0.216,0.45,0,2,-1,266,1
0.360477477665,0.16889007747,0.219814099463,1.09077608393,0.528,0.45,3,3,1,267,1
0.151513705245,1.06831663391,0.614954107674,0.256919920753,0.675,0.45,1,1,1,268,1
1.41089386172,0.363958743821,0.130125872913,0.261036628029,0.634,0.45,0,0,1,269,1
0.283490148678,1.14802693336,0.220591871032,0.300446157274,0.64,0.45,1,1,1,270,1
0.312611754961,0.198316843345,0.208681629079,0.850632470971,0.7,0.45,3,-1,0,272,1
0.351525898061,0.106526241426,1.0338358559,0.177358846166,0.598,0.45,2,2,1,272,1
0.295676781432,1.12465308646,0.182200453416,0.258174538581,0.53,0.45,1,1,1,273,1
0.331627593766,0.174382467299,1.05652478665,0.225685052349,0.464,0.45,2,2,1,274,1
0.278962062154,0.288791686239,0.284715960173,1.03772846214,0.529,0.45,3,3,1,275,1
1.04427781536,0.253140801375,0.254992904421,0.297447949133,0.502,0.45,0,0,1,276,1
0.237954796909,0.25420440591,1.02663262581,0.369521959512,0.501,0.45,2,2,1,277,1
0.26366985574,0.26336862458,0.200656860348,1.09369454735,0.651,0.45,3,3,1,278,1
0.396944170778,1.03485294358,0.299336241311,0.277053762393,0.7,0.45,1,-1,0,280,1
0.396944170778,1.03485294358,0.299336241311,0.277053762393,0.0200000000001,0.45,0,1,-1,280,1
0.243410784301,1.05803770314,0.137395620145,0.337541941839,0.5,0.45,1,1,1,281,1
0.357178082788,0.343864099161,0.257465463318,1.0353630414,0.603,0.45,3,3,1,282,1
1.15350679595,0.360674801533,0.213290834325,0.386717180647,0.63,0.45,0,0,1,283,1
0.299054434997,0.219917751468,0.116044267062,1.1154203587,0.554,0.45,3,3,1,284,1
0.306195517716,0.358888810487,1.1346323643,0.316815302015,0.599,0.45,2,2,1,285,1
1.01417126883,0.325229273326,0.261195905591,0.323256314436,0.524,0.45,0,0,1,286,1
0.287778374124,0.354549445117,0.911414525607,0.365929055911,0.7,0.45,2,-1,0,288,1
0.161358127203,1.09556003309,0.334208152314,0.307735662207,0.636,0.45,1,1,1,288,1
0.273339223338,0.107148251462,1.00776228929,0.235646382567,0.585,0.45,2,2,1,289,1
0.299406268391,0.164315729905,0.214577292722,1.01663613892,0.564,0.45,3,3,1,290,1
1.05157049924,0.270125526697,0.27873143871,0.338016990342,0.542,0.45,0,0,1,291,1
0.281660124895,1.11315207133,0.277342809606,0.342647226158,0.515,0.45,1,1,1,292,1
0.280993759421,0.159280582777,0.163080068256,1.03762933356,0.532,0.45,3,3,1,293,1
0.5955655858,0.53078039581,0.146352157572,0.341730704392,0.7,0.45,1,-1,0,295,1
0.157214375692,1.01903460091,0.120025430025,0.350557732762,0.314,0.45,0,1,-1,295,1
0.171786283642,0.116848494264,1.00534954412,0.260640938536,0.501,0.45,2,2,1,296,1
0.122036233217,0.947314806132,0.249766355559,0.331820010127,0.7,0.45,1,-1,0,298,1
0.381753697456,0.275965606121,0.790031710136,0.201527640384,0.7,0.45,2,-1,0,299,1
1.03576073928,0.355527491154,0.313996196232,0.275392866675,0.588,0.45,0,0,1,299,1
0.449583581382,0.238148501442,0.517954914976,1.04726844156,0.635,0.45,3,3,1,300,1
0.32112604376,0.316330810966,1.0821556656,0.283052887578,0.513,0.45,2,2,1,301,1
0.32181062744,1.00232395755,0.170611646966,0.240901526227,0.53,0.45,1,1,1,302,1
1.02194988307,0.307774561335,0.203143892275,0.256644705226,0.365,0.45,0,0,2,303,1
0.343562752457,0.337997205138,0.155781563507,1.00134630891,0.565,0.45,3,3,1,304,1
0.501411589876,1.04103475389,0.228127694043,0.367567832802,0.683,0.45,1,1,1,305,1
0.300476407911,0.221072267236,0.114521466288,1.00958104109,0.647,0.45,3,3,1,306,1
1.01550359663,0.287327988184,0.229807041523,0.322591399651,0.485,0.45,0,0,1,307,1
0.282885037803,0.416065315295,0.805328699513,0.264941148542,0.7,0.45,2,-1,0,309,1
0.280739774618,0.221618942907,1.04023693453,0.269556383681,0.245,0.45,0,2,-1,309,1
0.191994814192,1.13560371034,0.140368813005,0.297852935344,0.575,0.45,1,1,1,310,1
0.3431589807,0.216813376654,1.08699660176,0.249525010332,0.549,0.45,2,2,1,311,1
0.32074118409,0.260275551463,0.257968495775,1.03280863341,0.496,0.45,3,3,1,312,1
0.279970329988,0.320740643341,1.2029751595,0.304449771602,0.59,0.45,2,2,1,313,1
0.497175457983,0.277155481167,0.410865082002,0.268713765674,0.7,0.45,0,-1,0,315,1
1.31929289211,0.270994980481,0.412177806624,0.270237591981,0.125,0.45,1,0,-1,315,1
0.295642315928,0.389502072633,0.898540842434,1.00431538789,0.503,0.45,3,3,1,316,1
1.00782086062,0.311553771203,0.244800104611,0.315567804918,0.544,0.45,0,0,1,317,1
0.305382675722,0.27397587129,0.249250194559,1.03866861631,0.585,0.45,3,3,1,318,1
0.305083727199,1.06164414346,0.451915426292,0.312474546704,0.673,0.45,1,1,1,319,1
0.340835858501,0.228312736605,1.04332839641,0.28539798171,0.579,0.45,2,2,1,320,1
0.313353040137,1.10578628554,0.252664103224,0.285727313037,0.528,0.45,1,1,1,321,1
1.17242329844,0.203627862013,0.580255168862,0.259150119328,0.499,0.45,0,0,1,322,1
0.272416144662,0.164835370561,1.04002396841,0.2658935652,0.566,0.45,2,2,1,323,1
0.284328947329,0.23715543904,0.241851545852,0.81911487762,0.7,0.45,3,-1,0,325,1
0.250539147119,0.222026371143,1.08526752072,0.184182088379,0.55,0.45,2,2,1,325,1
0.276565102197,0.265870311271,0.310092350723,0.898881679314,0.7,0.45,3,-1,0,327,1
0.262707159791,0.27170138331,0.300205343306,1.18862400826,0.0390000000001,0.45,0,3,-1,327,1
1.00948259123,0.315847164351,0.30856823254,0.18650173715,0.516,0.45,1,0,-1,328,1
0.270248906607,1.10044789492,0.407457356243,0.125972243468,0.0310000000001,0.45,0,1,-1,329,1
0.160121127807,0.155041956838,0.138037836304,0.866421831863,0.7,0.45,3,-1,0,331,1
0.0990493613143,1.0232336506,0.673894620367,0.174503137524,0.674,0.45,1,1,1,331,1
0.0918988347023,0.241675317128,0.0441610441961,0.586793734362,0.7,0.45,3,-1,0,333,1
0.0934460271828,0.15151131023,0.0369465640554,1.45355349566,0.0650000000001,0.45,2,3,-1,333,1
0.285821843859,0.799319601208,0.0859347167117,0.109126315868,0.7,0.45,1,-1,0,335,1
0.200653516852,1.04308822599,0.0777932718513,0.120154793668,0.0600000000001,0.45,2,1,-1,335,1
1.00815639822,0.250649848907,0.149143424068,0.11175087131,0.577,0.45,0,0,1,336,1
0.316686543008,0.260679164716,1.00834793608,0.161265562683,0.668,0.45,2,2,1,337,1
0.279946294215,1.02541279517,0.40181401214,0.188437813598,0.572,0.45,1,1,1,338,1
0.41326087232,0.28381118947,0.145912289629,0.723944138641,0.7,0.45,3,-1,0,340,1
1.26724046063,0.159894502391,0.0883204815467,0.297550290697,0.617,0.45,0,0,1,340,1
0.336827848742,0.197946952683,0.151924966674,1.04118600172,0.565,0.45,3,3,1,341,1
0.131236077745,0.794842474154,0.556510969104,0.307424580048,0.7,0.45,1,-1,0,343,1
1.30689140201,0.420675408401,0.125010368364,0.272288943597,0.634,0.45,0,0,1,343,1
0.181607715302,0.257717316987,1.00540358541,0.22990654657,0.56,0.45,2,2,1,344,1
0.29757120824,0.30058023245,0.320055150398,0.764338767426,0.7,0.45,3,-1,0,346,1
0.107862054293,0.502732974011,1.29055498779,0.218829150291,0.585,0.45,2,2,1,346,1
1.40082049161,0.20799502823,0.338824672068,0.255085292363,0.534,0.45,0,0,1,347,1
0.180683785329,1.05517628264,0.337243910854,0.253542525738,0.531,0.45,1,1,1,348,1
0.311757366578,0.177484239125,1.03849395782,0.238196764597,0.528,0.45,2,2,1,349,1
0.284720831077,0.226130833973,0.196568184173,1.00411226968,0.571,0.45,3,3,1,350,1
1.0880937125,0.266305983948,0.456559114437,0.221505741951,0.485,0.45,0,0,1,351,1
0.117225796411,1.13221594769,0.436825919955,0.246910974851,0.432,0.45,1,1,2,352,1
1.1934499013,0.191049052264,0.325521965778,0.256632448097,0.629,0.45,0,0,1,353,1
0.171196770295,0.160989069946,0.220637792561,0.871750371571,0.7,0.45,3,-1,0,355,1
0.125884580339,0.50430969704,1.10549018572,0.225918206993,0.683,0.45,1,2,-1,355,1
0.0676931630303,0.232033416983,0.238676048452,0.221042197586,0.7,0.45,2,-1,0,357,1
1.26295058788,0.182931731396,0.131869063007,0.115536810975,0.7,0.45,0,-1,0,358,1
1.26295058788,0.182931731396,0.131869063007,0.115536810975,0.00500000000014,0.45,2,0,-1,358,1
0.0872131827756,1.16319130262,0.494192832432,0.101221066441,0.607,0.45,1,1,1,359,1
0.0890139403651,0.0690469766042,0.15501615887,0.682426438483,0.7,0.45,3,-1,0,361,1
0.0679131743558,0.0555071020777,0.979106679807,0.0786823627452,0.7,0.45,2,-1,0,362,1
0.0709527625588,1.02694791929,0.0399815773923,0.0918241681637,0.601,0.45,1,1,1,362,1
0.0722469079956,0.0390911245976,0.0391165233586,1.30393275994,0.648,0.45,3,3,1,363,1
1.00419144345,0.0390648845326,0.0390718169192,0.0703398882136,0.526,0.45,0,0,1,364,1
0.0297238530123,1.21425506955,0.0390634700436,0.0534033575754,0.573,0.45,1,1,1,365,1
1.17618186914,0.0449862208208,0.0390626102234,0.0402709594836,0.591,0.45,0,0,1,366,1
0.039916870445,0.0431281616599,0.024284141182,0.95870164345,0.7,0.45,3,-1,0,368,1
0.0206537613332,0.0391070671845,1.23269599831,0.0294817196493,0.638,0.45,2,2,1,368,1
0.0385997347754,0.0603635015144,-0.00739247906392,1.58881764576,0.641,0.45,3,3,1,369,1
0.0268903053021,0.0333373509181,-0.00430030782896,0.0169275245827,0.7,0.45,1,-1,0,371,1
0.02580428972,0.0326896370288,1.21412799736,0.0119271411994,0.143,0.45,2,2,2,371,1
0.0406513898096,1.09254883468,0.00785025231153,0.00792312162515,0.499,0.45,0,1,-1,372,1
0.241577857323,0.0837436590377,0.0350237864265,0.00781972708711,0.7,0.45,2,-1,0,374,1
0.542609127285,0.206308345466,0.126211133974,1.0387091715,0.635,0.45,3,3,1,374,1
1.15275500817,0.233423951531,0.163049809167,0.255090802908,0.571,0.45,0,0,1,375,1
0.47653509383,1.09269872544,0.304933808359,0.179313016502,0.652,0.45,1,1,1,376,1
0.414361423991,0.3296536743,0.161905634237,0.908619291157,0.7,0.45,3,-1,0,378,1
1.03585024974,0.303232695852,0.421429465105,0.182422587322,0.599,0.45,1,0,-1,378,1
0.717567745308,1.01475353137,0.323282328376,0.214630824698,0.0470000000002,0.45,0,1,-1,379,1
0.504285868502,0.292687705714,0.380160553517,1.01342989236,0.659,0.45,3,3,1,380,1
0.421327048967,0.415406640336,0.898667014645,0.360734024025,0.7,0.45,2,-1,0,382,1
0.401127652908,1.02382978925,0.349378259989,0.375400993388,0.593,0.45,1,1,1,382,1
0.532113178296,0.383541193991,1.00454231314,0.187119304667,0.648,0.45,2,2,1,383,1
1.09728717824,0.422090446799,0.287474558433,0.226934160005,0.575,0.45,0,0,1,384,1
0.436628783608,0.323123587589,0.91320975738,0.204158132171,0.7,0.45,2,-1,0,386,1
0.417367077043,1.00307925989,0.342782416064,0.261075610555,0.641,0.45,1,1,1,386,1
1.11478516263,0.223031757229,0.322035876179,0.311976765596,0.494,0.45,0,0,1,387,1
0.413259429837,0.260068537183,0.223064676735,1.09207823051,0.54,0.45,3,3,1,388,1
0.506871170294,0.65191315589,0.700241013639,0.28175109437,0.7,0.45,1,-1,0,390,1
0.354758156374,0.205013734152,0.0857023976854,1.10934860641,0.692,0.45,3,3,1,390,1
1.0985304447,0.302403872348,0.231956440087,0.430559693704,0.568,0.45,0,0,1,391,1
0.375894716859,1.04301005565,0.301933963132,0.39147453142,0.476,0.45,1,1,1,392,1
0.390249602661,0.298091968887,0.81034576963,0.216599075701,0.7,0.45,2,-1,0,394,1
0.358422418747,0.367095243807,1.28459103774,0.193185662303,0.157,0.45,0,2,-1,394,1
0.426261773283,0.303100570977,1.00571938855,0.261961397586,0.485,0.45,2,2,1,395,1
0.432356018775,0.262234137027,0.182578936032,1.05431203871,0.511,0.45,3,3,1,396,1
0.315976788804,0.280391350407,1.21776933487,0.327777582532,0.656,0.45,2,2,1,397,1
1.18236764185,0.32647105366,0.263967841684,0.341665215539,0.532,0.45,0,0,1,398,1
0.395107008486,1.0441374344,0.323694869408,0.358739648271,0.575,0.45,1,1,1,399,1
0.335419851077,0.233614092945,0.221625405005,1.00891399944,0.624,0.45,3,3,1,400,1
0.474028187925,0.589635378197,0.253069561477,0.268389434706,0.7,0.45,1,-1,0,402,1
0.73817891204,0.361537762027,0.0726990218948,0.232876615434,0.7,0.45,0,-1,0,403,1
1.04068651854,0.278405722368,0.0651891965659,0.248236057022,0.161,0.45,3,0,-1,403,1
1.09866587017,0.269511701048,0.100960695467,0.403753930764,0.588,0.45,0,0,1,404,1
0.349497530745,0.321402616502,1.03038376315,0.254176016968,0.636,0.45,2,2,1,405,1
0.276970422833,1.07798126795,0.187978255166,0.27118649301,0.537,0.45,1,1,1,406,1
0.406707580283,0.295109756213,0.503679913216,0.252645055264,0.7,0.45,2,-1,0,408,1
0.188638232261,0.109058841027,1.13886701869,0.140126788662,0.629,0.45,3,2,-1,408,1
0.209185902004,0.16932326189,0.301782975491,0.077604473474,0.7,0.45,2,-1,0,410,1
0.0838568074784,1.25752615565,0.0501004112081,0.140159901368,0.67,0.45,1,1,1,410,1
1.08928610836,0.0673204969216,0.0392724274934,0.114514391682,0.618,0.45,0,0,1,411,1
0.431076399748,0.148169252713,0.315207281299,0.18292833165,0.7,0.45,3,-1,0,413,1
0.318372131795,0.103625480314,1.06023633557,0.146707666031,0.11,0.45,0,2,-1,413,1
0.245975000082,1.06565172171,0.215452561846,0.145814359526,0.557,0.45,1,1,1,414,1
0.183786187358,0.135765504308,0.0457075068237,1.13718903704,0.626,0.45,3,3,1,415,1
0.29028686061,1.07020530423,0.211445557496,0.385987024484,0.624,0.45,1,1,1,416,1
0.174448906025,0.118160022737,1.10004671185,0.185579849956,0.623,0.45,2,2,1,417,1
1.13967271056,0.360434254606,0.265992707018,0.213714564023,0.55,0.45,0,0,1,418,1
0.257674981316,0.0823000739689,0.96255916687,0.161277357318,0.7,0.45,2,-1,0,420,1
0.291968753138,0.210360749006,0.295268251647,1.01087391589,0.655,0.45,3,3,1,420,1
0.208146483274,0.263114367547,1.00576675967,0.26898912424,0.625,0.45,2,2,1,421,1
1.01033401801,0.333533516678,0.275261952524,0.343777422421,0.593,0.45,0,0,1,422,1
0.217134397457,1.08126978541,0.423631425777,0.344177537445,0.493,0.45,1,1,1,423,1
0.360498961753,0.222978936081,0.291697943761,1.07753995493,0.614,0.45,3,3,1,424,1
0.275620677867,1.0398136883,0.299647193133,0.380510696484,0.511,0.45,1,1,1,425,1
1.13975979252,0.271941248361,0.283587649115,0.283338161962,0.533,0.45,0,0,1,426,1
0.264188792682,0.223695309504,0.18954083422,1.00176603753,0.598,0.45,3,3,1,427,1
1.09464687643,0.23482923385,0.274091738611,0.270771069173,0.571,0.45,0,0,1,428,1
0.235896098059,0.287036482481,1.02782353131,0.331926862338,0.45,0.45,2,2,1,429,1
0.316659379474,0.170127100941,0.0601983377228,0.912940053178,0.7,0.45,3,-1,0,431,1
0.27267844884,0.226876142634,1.15961268645,0.368628739426,0.559,0.45,2,2,1,431,1
0.282221245077,1.07054903514,0.22312124931,0.260360797127,0.578,0.45,1,1,1,432,1
0.205052373037,0.171607660004,1.43073743696,0.338909739896,0.621,0.45,2,2,1,433,1
1.18424562147,0.0687604577103,0.0279798804506,0.164045503909,0.569,0.45,0,0,1,434,2
0.391701665171,1.10112289765,0.0979039778963,0.240578176663,0.477,0.45,1,1,1,435,2
0.353712578575,0.495849340918,1.02899045173,0.133454098525,0.379,0.45,2,2,2,436,2
0.470070171614,0.366334656088,0.20541783781,1.05404922707,0.364,0.45,3,3,2,437,2
0.386648358058,0.527420943754,1.23680873967,0.193473922061,0.487,0.45,2,2,1,438,2
0.309041599076,1.16834307834,0.139762628358,0.109348969456,0.377,0.45,1,1,2,439,2
0.609429703119,0.0891802432144,0.206820108908,1.27908435043,0.509,0.45,3,3,1,440,2
1.03530945691,0.161075027318,0.103907533421,0.362704485851,0.449,0.45,0,0,2,441,2
0.410098701176,0.288112900134,0.32330420838,1.04939451121,0.437,0.45,3,3,2,442,2
0.460757209413,1.0194047403,0.318125204621,0.340743036078,0.551,0.45,1,1,1,443,2
1.04239819555,0.289858842694,0.245649702169,0.287582671385,0.538,0.45,0,0,1,444,2
0.363366417881,0.35760105746,0.960467128233,0.266067281962,0.7,0.45,2,-1,0,446,2
0.404628198472,0.274262530124,1.01242673023,0.336679217406,0.188,0.45,0,2,-1,446,2
0.406815632038,0.0278028420282,0.327588244638,1.16928437329,0.53,0.45,3,3,1,447,2
0.490811588393,0.0986980695004,1.04719843087,0.213965145103,0.509,0.45,1,2,-1,448,2
0.39381783906,0.124225522788,1.01785736068,0.162380817373,0.7,0.45,2,-1,0,450,2
0.39381783906,0.124225522788,1.01785736068,0.162380817373,0.00600000000018,0.45,1,2,-1,450,2
0.407916589374,0.403369127911,0.0649246255324,1.36709479289,0.462,0.45,3,3,1,451,2
0.444112629398,0.261488789786,0.086280895061,1.25783808894,0.481,0.45,2,3,-1,452,2
1.41198164007,0.0227277013831,0.114422856151,0.132749144639,0.657,0.45,0,0,1,453,2
0.0961752569643,1.24945727043,0.0635122507568,0.105935582676,0.655,0.45,1,1,1,454,2
1.05994012624,0.0320166797295,0.284981911294,0.0930104008267,0.657,0.45,0,0,1,455,2
0.329282208584,0.101762791402,1.01739281593,0.305382741274,0.678,0.45,2,2,1,456,2
0.457793621201,0.0770212017582,0.26672175792,1.14978652562,0.557,0.45,3,3,1,457,2
1.00068805227,0.330759677039,0.401963447257,0.236002339269,0.487,0.45,0,0,1,458,2
0.425385998634,0.171311435551,0.320363735881,1.10613074664,0.413,0.45,3,3,2,459,2
0.434176965795,1.01209497047,0.612396746253,0.18236567711,0.659,0.45,1,1,1,460,2
0.31770561878,0.324448994611,1.23827400201,0.170023362192,0.593,0.45,2,2,1,461,2
0.41002259664,0.333505398364,0.0418447465934,1.15484631458,0.524,0.45,3,3,1,462,2
0.316304712274,0.176584094806,1.28407707149,0.323434652702,0.548,0.45,2,2,1,463,2
0.260253308778,1.03651051489,0.636610054764,0.164891256568,0.527,0.45,1,1,1,464,2
0.255248289858,0.342873416898,0.100444844431,1.09189063837,0.475,0.45,3,3,1,465,2
1.1188129381,0.259834802571,0.11095197274,0.312857643176,0.447,0.45,0,0,2,466,2
0.0958652304842,0.0796783469796,1.13409052642,0.567824750811,0.62,0.45,2,2,1,467,2
1.2202130296,0.0238977986168,0.230954478874,0.110044549377,0.572,0.45,0,0,1,468,2
0.14030629954,1.30473048123,0.211087604254,0.100050922138,0.7,0.45,1,-1,0,470,2
0.14030629954,1.30473048123,0.211087604254,0.100050922138,0.00900000000019,0.45,0,1,-1,470,2
0.0754270800824,1.12789607466,0.242595381912,0.105776793064,0.516,0.45,1,1,1,471,2
0.0447627954497,0.0259400546494,1.03254599347,0.0950140338092,0.492,0.45,2,2,1,472,2
0.0397356693996,0.0218186123529,0.295713660155,1.02324748871,0.535,0.45,3,3,1,473,2
0.0386303498303,1.00595356118,0.309192170559,0.117294408167,0.537,0.45,1,1,1,474,2
0.041707904803,0.200810089106,0.21363127094,1.14296317908,0.511,0.45,3,3,1,475,2
0.0467225102252,0.175145360831,0.154511099887,1.08915452029,0.507,0.45,2,3,-1,476,2
0.811002165182,0.107554737605,0.00351103938887,0.093719095665,0.7,0.45,0,-1,0,478,2
1.05641977504,0.0956579417316,0.00304016677638,0.0937121526076,0.0460000000002,0.45,3,0,-1,478,2
1.33193611726,0.0305154389936,0.297400812519,0.209535789155,0.504,0.45,0,0,1,479,2
0.207570859495,0.0701044352685,1.01736055573,0.130512537447,0.57,0.45,2,2,1,480,2
0.244145990778,1.03898265655,0.191503094587,0.193277624031,0.54,0.45,1,1,1,481,2
1.00574726527,0.329105307268,0.252266000657,0.420942508051,0.441,0.45,0,0,2,482,2
0.23206773927,0.182800458888,0.324697481878,1.09701292309,0.538,0.45,3,3,1,483,2
0.287247537913,0.205524638691,1.06000988534,0.172893007222,0.495,0.45,2,2,1,484,2
0.392906797849,1.06853792419,0.206473583336,0.3819087013,0.418,0.45,1,1,2,485,2
1.00397057756,0.213202283002,0.347665870068,0.419444272529,0.378,0.45,2,0,-1,486,2
0.368130599655,0.245985333715,0.251708057947,1.24215814408,0.598,0.45,3,3,1,487,2
0.38047885532,1.03262653197,0.377570471747,0.352798628797,0.582,0.45,1,1,1,488,2
0.280211920742,0.25116726847,0.335871457613,1.2006018614,0.438,0.45,3,3,2,489,2
1.34605231134,0.244667235898,0.200199217556,0.376468506436,0.492,0.45,0,0,1,490,2
0.301346803751,1.12721631981,0.247304827201,0.313673365116,0.469,0.45,1,1,1,491,2
1.03700002082,0.235495561857,0.412651623283,0.377168434882,0.644,0.45,0,0,1,492,2
0.230385878373,0.240261115984,1.04453904322,0.367629048104,0.498,0.45,2,2,1,493,2
1.10252464194,0.287732033817,0.335162182013,0.437686991953,0.519,0.45,0,0,1,494,2
1.00083473786,0.264928498319,0.375903605084,0.399979472062,0.444,0.45,1,0,-1,495,2
0.350642222846,0.283332609014,1.14210163017,0.230794348171,0.572,0.45,2,2,1,496,2
0.351733535824,0.338138047177,0.330088857661,1.05898012171,0.526,0.45,3,3,1,497,2
0.42670442941,0.351316283876,1.00545637352,0.301142604301,0.444,0.45,2,2,2,498,2
0.347353188071,1.11880889525,0.378634217611,0.359952215146,0.515,0.45,1,1,1,499,2
0.336365381479,0.175917640674,0.275618428463,1.1351489101,0.441,0.45,3,3,2,500,2
1.01089103082,0.305022029739,0.164229727839,0.399188645433,0.595,0.45,0,0,1,501,2
0.33887445319,0.242121288482,1.09064131849,0.234458555927,0.524,0.45,2,2,1,502,2
1.1625232396,0.285609779346,0.175659745604,0.40795659875,0.556,0.45,0,0,1,503,2
0.23130631458,0.370470766304,0.390764524125,1.11881671498,0.463,0.45,3,3,1,504,2
0.303595463407,1.21133426599,0.51079315058,0.260004761471,0.558,0.45,1,1,1,505,2
1.27202755589,0.498577731341,0.134084084677,0.363862476011,0.514,0.45,0,0,1,506,2
1.00285143126,0.629708608639,0.300411722488,0.385289071088,0.521,0.45,1,0,-1,507,2
0.255294007434,0.337363894298,0.220285237026,1.06088753084,0.59,0.45,3,3,1,508,2
0.292226998912,1.10285053636,0.147777017076,0.324442858403,0.54,0.45,2,1,-1,509,2
0.35394073083,0.19588609892,0.067672084773,1.2838304873,0.7,0.45,3,-1,0,511,2
0.35394073083,0.19588609892,0.067672084773,1.2838304873,0.0060000000002,0.45,1,3,-1,511,2
0.55986065474,0.33014412006,0.143768432611,1.12759978277,0.388,0.45,2,3,-1,512,2
0.0668054276126,0.347684628211,0.0566318567973,0.129259013129,0.7,0.45,1,-1,0,514,2
0.0842298740075,1.30253464729,0.0181291847717,0.135669938563,0.191,0.45,0,1,-1,514,2
0.0706539353619,0.0214058927353,0.00803123207761,1.46035871107,0.548,0.45,3,3,1,515,2
1.11922490109,0.026784464205,0.00783926973242,0.109294809815,0.541,0.45,0,0,1,516,2
0.0406233179941,0.0167037350702,1.1187875825,0.108710941505,0.568,0.45,2,2,1,517,2
1.07909444855,0.0208527618756,0.000122418846658,0.109188125903,0.566,0.45,0,0,1,518,2
0.0121903069733,1.25542670298,7.4252902037e-06,0.0945026826366,0.61,0.45,1,1,1,519,2
0.0380676203062,0.0467058652608,0.0865340394619,1.15610767968,0.613,0.45,3,3,1,520,2
0.0554991727821,0.017844788973,1.04272542859,0.0893514334167,0.685,0.45,2,2,1,521,2
0.0231418740987,1.13326418567,0.000814970712234,0.0874606540286,0.524,0.45,1,1,1,522,2
0.145906260427,0.0173665789679,1.22584837004,0.0859812167933,0.571,0.45,2,2,1,523,2
0.0353960733051,0.0175251344585,0.000124248834759,1.04204289155,0.613,0.45,3,3,1,524,2
0.0211240218124,0.729565021766,6.11293414199e-06,0.0550608054892,0.7,0.45,1,-1,0,526,2
0.0213084621141,1.02664378791,5.663537756e-06,0.0550028529482,0.0400000000002,0.45,0,1,-1,526,2
0.0201315034851,0.0234433080707,1.1518825284,0.0540473873508,0.658,0.45,2,2,1,527,2
1.04919429005,0.0234384241863,0.000226584902774,0.0544817593609,0.559,0.45,0,0,1,528,2
0.0627378703107,0.0234376080414,0.0493951114604,1.00850840172,0.568,0.45,3,3,1,529,2
1.28766850741,0.0234375137896,-0.010823449378,0.0312422790338,0.548,0.45,0,0,1,530,2
0.000963127457751,0.0234375021889,-0.0148706966124,1.27808133725,0.456,0.45,3,3,1,531,2
0.00540549178823,0.641201847869,0.0306541940833,0.0389756697389,0.7,0.45,1,-1,0,533,2
0.0204251516963,0.0179925411119,1.10756180669,0.0389467932389,0.538,0.45,2,2,1,533,2
0.0246348488019,0.019537628383,-0.0232417135785,1.13455979289,0.613,0.45,3,3,1,534,2
0.0225717422937,0.0159731677393,0.830137518056,0.0782793934438,0.7,0.45,2,-1,0,536,2
0.0232886787694,0.0159487420044,1.10814460039,0.0782542660086,0.0250000000002,0.45,1,2,-1,536,2
0.0149516955039,0.015631044172,-0.0416574633349,1.05652100564,0.64,0.45,3,3,1,537,2
1.23526864024,0.015625769179,-0.0393871322138,0.0577229929556,0.621,0.45,0,0,1,538,2
0.00156712607036,0.0141088464076,0.290031873636,0.0527356429703,0.7,0.45,2,-1,0,540,2
1.36408934682,0.0153974944138,-0.0290671102432,0.0529329954351,0.646,0.45,0,0,1,540,2
0.00143249883983,1.23736740099,-0.0310090460505,0.0484779252093,0.644,0.45,1,1,1,541,2
1.55328298207,0.0157934793676,-0.0312211114608,0.0469587702975,0.644,0.45,0,0,1,542,2
0.0396768877218,0.00911333456936,1.37437932919,0.0365725170762,0.576,0.45,2,2,1,543,2
0.0309744832704,0.0146080092779,-0.0425470654132,1.04933727269,0.48,0.45,3,3,1,544,2
0.0520832529051,1.11956878091,-0.033465154431,0.047248738322,0.634,0.45,1,1,1,545,2
0.0359504630446,0.00792475620456,-0.0316071551732,1.2827813834,0.536,0.45,3,3,1,546,2
0.0505533924937,0.00484783303173,0.948835419766,0.0198689641036,0.7,0.45,2,-1,0,548,2
0.213828818273,1.25403794695,-0.014675897057,0.0449723027038,0.591,0.45,1,1,1,548,2
1.35056447044,0.0158714986532,-0.0155315958345,0.0464995352712,0.543,0.45,0,0,1,549,2
0.0333554328921,0.00674122256255,-0.0276058798264,1.1052861806,0.495,0.45,3,3,1,550,2
1.17117325856,0.017762157894,-0.0188361736444,0.00999101649476,0.64,0.45,0,0,1,551,2
0.0290633915217,1.09193842609,-0.0159764753645,0.0160727463416,0.667,0.45,1,1,1,552,2
0.0210746880713,0.00277954543878,1.01068835814,0.000253614122472,0.496,0.45,2,2,1,553,2
0.028001862519,7.26575222212e-05,-0.0468138321301,0.09036554458,0.7,0.45,0,-1,0,555,2
1.10710179633,5.40709697274e-05,-0.0468317442916,0.0849209096931,0.112,0.45,1,0,-1,555,2
0.139461067041,0.156067094467,0.0959415668436,0.887380898363,0.7,0.45,3,-1,0,557,2
0.186705034251,0.156086231661,0.0712194541426,1.29690459242,0.0360000000002,0.45,2,3,-1,557,2
0.29954009843,1.28263911487,0.0568204881413,0.154421208639,0.515,0.45,1,1,1,558,2
0.0720890046142,0.00600731155434,1.02113995736,0.140663259208,0.563,0.45,2,2,1,559,2
0.0560720909044,0.0131817526416,-0.0309687359104,1.0092100573,0.515,0.45,3,3,1,560,2
0.100162661806,1.15861893356,0.0581493890808,0.137012831806,0.635,0.45,1,1,1,561,2
1.49231053755,0.000730930184061,-0.0229613934205,0.132850082435,0.487,0.45,0,0,1,562,2
0.0680767777394,0.0531214382474,1.07266030911,0.110922809789,0.583,0.45,2,2,1,563,2
1.16787725838,0.104924924053,-0.0311156594163,0.109452639172,0.583,0.45,0,0,1,564,2
0.0944695520541,0.00740198887021,-0.0312353965035,1.08496619046,0.465,0.45,3,3,1,565,2
1.25173921828,0.00360351046319,-0.0152766116964,0.0922980510463,0.535,0.45,0,0,1,566,2
0.120815724373,0.0108614939351,-0.0162718993392,1.08534419448,0.411,0.45,2,3,-1,567,2
0.0958281952682,0.0038966690243,-0.00818494194658,0.755452475955,0.7,0.45,3,-1,0,569,2
0.101698573671,0.00361636341578,-0.00815882097533,1.44865835575,0.0440000000002,0.45,1,3,-1,569,2
0.0694273497615,0.000116511497801,-0.016240494162,1.0694490655,0.474,0.45,3,3,1,570,2
0.0641262386474,9.61470329641e-06,1.15815391742,0.0850541118526,0.598,0.45,2,2,1,571,2
0.039940625631,1.18175654645,-0.023375764012,0.0841584025752,0.69,0.45,1,1,1,572,2
0.161476001663,0.135089556364,0.0549624935709,0.096188777304,0.7,0.45,0,-1,0,574,2
0.138756585607,0.0659871678241,1.01454917417,0.122541443407,0.541,0.45,1,2,-1,574,2
0.0771851913631,1.02653549857,0.518228892558,0.0948663529952,0.0330000000002,0.45,2,1,-1,575,2
0.883567398102,0.159242865583,0.12145897335,0.240182136602,0.7,0.45,0,-1,0,577,2
0.421639023256,0.340784716388,0.260496066157,0.901390089177,0.7,0.45,3,-1,0,578,2
0.503420277003,0.0899790617594,-0.0205571576632,0.0912763113686,0.7,0.45,0,-1,0,579,2
1.03881321051,0.587033647626,0.361495214658,0.536797524522,0.307,0.45,2,0,-1,579,2
1.02417682783,0.811596215367,0.336302343431,0.202699194537,0.523,0.45,1,0,-1,580,2
0.276164409755,0.37426066198,0.263562679453,1.02373330666,0.446,0.45,3,3,2,581,2
1.06388404253,0.516946156535,0.344607176993,0.407710614245,0.468,0.45,1,0,-1,582,2
0.105283795659,1.11404713746,0.189446126476,0.192704832523,0.536,0.45,2,1,-1,583,2
0.146026192174,0.0519775438743,1.13476021227,0.221471771334,0.7,0.45,3,-1,0,585,2
0.146026192174,0.0519775438743,1.13476021227,0.221471771334,0.00400000000023,0.45,0,2,-1,585,2
1.37413623248,0.0159316399928,0.00782038004139,0.155827745673,0.578,0.45,1,0,-1,586,2
1.28527205917,1.33259260046,0.00421961675361,0.146365339846,0.00100000000024,0.45,0,1,-1,587,2
0.0962651173449,0.00788784075786,0.00610214464521,1.19652763595,0.513,0.45,3,3,1,588,2
0.0837596231682,0.00781938014009,1.21521450895,0.124846404375,0.607,0.45,2,2,1,589,2
1.22949869422,0.00579489151425,-0.0121153930592,0.117130347905,0.633,0.45,0,0,1,590,2
0.0253245050137,0.0123745106492,1.20599354461,0.108712876271,0.584,0.45,2,2,1,591,2
0.0484444273472,0.0150776098048,-0.00759844673423,1.73941767767,0.468,0.45,3,3,1,592,2
0.0492020641859,1.03526132711,-0.00780621220224,0.0885856217022,0.563,0.45,1,1,1,593,2
0.0313988499728,0.00792809526718,-0.00781157123078,1.06912254341,0.491,0.45,3,3,1,594,2
0.0220989506605,0.00781469815222,1.01210004771,0.148330638298,0.7,0.45,2,-1,0,596,2
0.0220989506605,0.00781469815222,1.01210004771,0.148330638298,0.0160000000002,0.45,1,2,-1,596,2
0.00833992654673,0.00781256559063,1.07072211368,0.0928008948352,0.474,0.45,2,2,1,597,2
1.49684886965,0.00781250594054,-0.0156179439058,0.087730429993,0.567,0.45,0,0,1,598,2
-0.00447216027236,0.00781250076265,-0.0156244580191,1.05675775344,0.545,0.45,3,3,1,599,2
1.0993059123,0.00781250009157,-0.0156249355664,0.104689104237,0.545,0.45,0,0,1,600,2
0.0456016321483,1.22883545328,-0.0156249944784,0.094604686849,0.656,0.45,1,1,1,601,2
1.35346096562,0.00801774499671,-0.0156249993312,0.0937451449094,0.653,0.45,0,0,1,602,2
0.0551045029801,1.0472466662,-0.0156249999258,0.084602417413,0.679,0.45,1,1,1,603,2
0.0439361464608,0.00878276006132,1.12499264742,0.0731186710626,0.463,0.45,2,2,1,604,2
0.0381495903413,0.00789919918159,-0.0151789126034,1.05439034861,0.338,0.45,3,3,2,605,2
0.0462722242278,1.18287244148,-0.0156150307363,0.0873362088533,0.616,0.45,1,1,1,606,2
0.0471190426314,0.0157208162266,-0.0156236194574,1.41581334193,0.568,0.45,3,3,1,607,2
0.0512701406438,0.0156295955519,1.38986046677,0.0701970527266,0.6,0.45,2,2,1,608,2
1.43345222651,0.0156255131133,-0.015645588561,0.0716986755364,0.62,0.45,0,0,1,609,2
0.00253488785592,0.0045360692675,-0.0187269812882,1.22894621478,0.5,0.45,3,3,1,610,2
1.00251422344,0.007365300673,-0.0160484989416,0.103448529178,0.452,0.45,0,0,1,611,2
0.0247649581136,0.00776373625386,1.19420964935,0.0996303905976,0.484,0.45,2,2,1,612,2
0.0334375644223,1.07149982245,-0.0233622589007,0.0942171034327,0.527,0.45,1,1,1,613,2
1.43275326947,0.00792589180627,-0.023431682212,0.0936930833973,0.554,0.45,0,0,1,614,2
0.0130770894532,0.0127769387331,-0.00683316813416,1.28153416176,0.535,0.45,3,3,1,615,2
0.00753597624885,1.22223124587,-0.036152258493,0.0958413552903,0.54,0.45,1,1,1,616,2
0.0275820568438,0.0080627145826,1.41474695487,0.259213115966,0.542,0.45,2,2,1,617,2
0.0275493787651,0.00785132039837,0.00805925776139,1.21537636763,0.371,0.45,3,3,2,618,2
0.0292307683053,0.00781456339839,1.53859633177,0.0476131885366,0.636,0.45,2,2,1,619,2
0.0545130131132,0.0279845053479,-0.0156028140678,0.055220986648,0.7,0.45,1,-1,0,621,2
0.0361499135862,1.27230848421,-0.0156150448024,0.0510092832086,0.216,0.45,0,1,-1,621,2
0.0131117179658,1.16577677248,-0.0156246323495,0.0482565081376,0.577,0.45,1,1,1,622,2
0.0219004155673,0.0157318323005,-0.0222206610862,1.32628723699,0.578,0.45,3,3,1,623,2
1.29931959973,0.0156343640641,-0.00950855892024,0.0707241352396,0.526,0.45,0,0,1,624,2
0.0128893383215,0.0139305078657,1.58882790731,0.0702334675956,0.483,0.45,2,2,1,625,2
1.54407788888,-0.0025477865443,-0.00240520048667,0.0198005833189,0.577,0.45,0,0,1,626,2
0.0137254302857,0.0176864865763,1.11113903774,-0.107646133361,0.599,0.45,2,2,1,627,2
0.0491427115012,0.00917732217911,-0.0136137712905,1.16146658623,0.505,0.45,3,3,1,628,2
0.0524258683098,1.10606180252,-0.0153163969063,0.0919781936623,0.655,0.45,1,1,1,629,2
0.0226960551983,0.00083221050703,0.101497861227,1.2231463981,0.6,0.45,3,3,1,630,2
0.034286190096,1.39737693149,-0.00414826862165,0.073605354621,0.579,0.45,2,1,-1,631,2
0.0186607536797,0.0234279556461,-0.00892110290275,0.0744001425131,0.7,0.45,1,-1,0,633,2
0.0155230542457,0.00126860214013,1.25236680034,0.0747246021454,0.508,0.45,2,2,1,633,2
1.42703148796,-0.00688450471287,-0.0156049887239,0.0661390164308,0.536,0.45,0,0,1,634,2
0.0609177209511,1.0847439639,-0.0156237258599,0.0617915326305,0.544,0.45,1,1,1,635,2
1.46017424892,0.00172761771686,-0.017383432971,0.0998517625115,0.595,0.45,0,0,1,636,2
0.0230120536879,0.0141242592072,-0.0159003015536,1.77052283819,0.506,0.45,3,3,1,637,2
1.58851744808,0.0175657937135,-0.00509753909528,0.0862592239137,0.486,0.45,0,0,1,638,2
0.0293454525568,0.0124572212687,1.35204820715,0.10535371674,0.465,0.45,2,2,1,639,2
0.0387636020396,1.43729687135,-0.0156232771465,0.0916505118249,0.564,0.45,1,1,1,640,2
0.0327189755689,0.0129814304826,-0.00443165143751,1.14857235156,0.548,0.45,3,3,1,641,2
0.0279333244217,0.0197926252722,1.60203165944,0.0912089229994,0.641,0.45,2,2,1,642,2
0.0223460370375,0.027875671739,-0.0122021314381,1.65055257513,0.623,0.45,3,3,1,643,2
0.0319049023787,1.01937691161,-0.0114931692021,0.117057518092,0.627,0.45,1,1,1,644,2
1.09365986125,0.00821040305939,-0.00667831226408,0.105563976431,0.434,0.45,0,0,2,645,2
0.0475018621074,0.00782138899869,1.17738625629,0.125263932742,0.539,0.45,1,2,-1,646,2
0.0523983406513,0.0618801678801,0.0635708412139,0.0614177066303,0.7,0.45,2,-1,0,648,2
1.60923218571,0.0173685681806,0.00666835000711,0.0582720761078,0.553,0.45,0,0,1,648,2
0.285655194603,0.115249759466,0.000802116296792,1.1773795689,0.626,0.45,3,3,1,649,2
1.02588072014,0.0135223735374,-0.015999724399,0.144259539965,0.574,0.45,0,0,1,650,2
0.398239994049,1.04163561243,0.047613539945,0.255165615645,0.448,0.45,1,1,2,651,3
0.27251387671,0.253421130801,1.21225613623,0.218106409948,0.378,0.45,2,2,2,652,3
1.68555668881,0.101302645484,0.444811582498,0.204466237307,0.406,0.45,0,0,2,653,3
0.267142680114,0.0107199402951,0.104880496124,1.00182105204,0.541,0.45,3,3,1,654,3
0.0554782552001,0.0114774487935,1.03785249019,0.189697405334,0.494,0.45,2,2,1,655,3
0.0667900106436,0.116027927002,0.0407989956641,1.16802896929,0.521,0.45,3,3,1,656,3
1.63275849999,0.00894682540447,0.0161419592327,0.411471871877,0.449,0.45,0,0,2,657,3
0.0343271866113,0.00794728024057,1.22167896756,0.174621410551,0.428,0.45,2,2,2,658,3
0.0162005830755,1.09709997126,-0.0150166415447,0.175424734143,0.415,0.45,1,1,2,659,3
0.014698733366,-0.00780288604483,0.0878742038215,1.13308708879,0.551,0.45,3,3,1,660,3
0.0303919970749,1.42828454837,-0.00700365458412,0.14634059231,0.534,0.45,1,1,1,661,3
1.48244033841,-0.00369875530939,-0.00768510161976,0.117959269483,0.427,0.45,0,0,2,662,3
0.0548281034068,1.05197174953,0.00929129703445,0.118797497235,0.606,0.45,1,1,1,663,3
0.0502647686806,0.00785873647607,-0.00102829531483,1.2054814771,0.538,0.45,3,3,1,664,3
1.0885582964,0.00781337884488,-0.0209923911619,0.109220967867,0.493,0.45,0,0,1,665,3
-0.00095688065157,0.0109016767317,1.74888269163,0.112376577559,0.542,0.45,2,2,1,666,3
-0.00265218569483,0.00839741071705,-0.0231019526429,1.37161175714,0.527,0.45,3,3,1,667,3
-0.00211084383353,0.0108957175338,1.20329599264,0.110987554575,0.548,0.45,2,2,1,668,3
1.5909095669,0.00786149713915,-0.0154615827921,0.110236798375,0.478,0.45,0,0,1,669,3
0.0671941092782,1.55054300251,0.268233397512,0.131059016136,0.668,0.45,1,1,1,670,3
1.46667701094,-0.00413218372344,0.00539117290965,0.121018587334,0.678,0.45,0,0,1,671,3
0.0638203273151,-0.00920211611849,0.0116096562934,1.16239099971,0.607,0.45,3,3,1,672,3
0.0512184008273,1.3352030619,-0.0125026297568,0.100216512869,0.557,0.45,1,1,1,673,3
0.0501081798713,0.00784688341437,1.5010973244,0.0940579153329,0.53,0.45,2,2,1,674,3
1.79455291883,0.00781438055005,-0.0314745963123,0.0686384184345,0.41,0.45,1,0,-1,675,3
0.482549373498,0.534431024913,0.251653227681,0.0690138515841,0.7,0.45,0,-1,0,677,3
1.01438597628,0.541435492529,0.273036754554,0.064659308396,0.0520000000003,0.45,2,0,-1,677,3
0.587092785088,0.136242776185,0.25213009785,1.05953384746,0.39,0.45,3,3,2,678,3
1.20984627276,0.350128756938,0.23173233862,0.234917982336,0.415,0.45,0,0,2,679,3
0.643398310762,0.276571798632,0.208965518792,1.03351620807,0.448,0.45,3,3,2,680,3
0.478733699191,0.214254096709,1.16599035266,0.231589744601,0.503,0.45,2,2,1,681,3
1.3189660717,0.476307886303,0.325656781635,0.249705696061,0.502,0.45,0,0,1,682,3
0.853807532425,1.07653353647,0.439079661466,0.250292627408,0.509,0.45,1,1,1,683,3
0.443868873631,0.413955615644,0.1543621486,1.07412354524,0.489,0.45,3,3,1,684,3
0.372794501242,1.08685727821,0.118976836127,0.274012882474,0.535,0.45,1,1,1,685,3
0.698220404825,0.271474588034,1.19433269452,0.237459894845,0.547,0.45,2,2,1,686,3
0.772110814193,1.20145918656,0.279049103446,0.320484681938,0.52,0.45,1,1,1,687,3
0.701835191876,0.486093362039,0.102356729274,1.04626528052,0.577,0.45,3,3,1,688,3
0.564504669979,0.208847613654,1.10877157355,0.25159305337,0.628,0.45,2,2,1,689,3
1.29412305114,0.368115489717,0.299056439263,0.290300827996,0.535,0.45,0,0,1,690,3
0.24401606411,0.181166091108,1.04588207547,0.248789348486,0.498,0.45,2,2,1,691,3
0.544494572038,0.28119835466,0.302826582448,1.02179490278,0.528,0.45,3,3,1,692,3
1.22040930254,0.424845373411,0.384311214986,0.324134461076,0.458,0.45,0,0,1,693,3
0.32254179592,1.24313058235,0.391995856725,0.414156619314,0.389,0.45,1,1,2,694,3
1.27268210526,0.0900197710448,0.351398535911,0.217995001368,0.662,0.45,0,0,1,695,3
0.462404423356,0.0787388436929,0.283036960432,1.13424885056,0.507,0.45,3,3,1,696,3
0.286159550276,1.17315267633,0.204624197162,0.225718650025,0.495,0.45,1,1,1,697,3
0.476581461231,0.238826450688,1.07724899498,0.225530347879,0.471,0.45,2,2,1,698,3
1.25799735817,0.402431488011,0.185385393282,0.283697166992,0.497,0.45,1,0,-1,699,3
0.051373963398,0.237179412494,1.14312298512,0.20830674041,0.594,0.45,2,2,1,700,3
1.1613290972,0.911493817649,0.279332569341,0.20097901593,0.55,0.45,0,0,1,701,3
0.395020786704,0.375452004912,0.293997905824,0.505399714336,0.7,0.45,3,-1,0,703,3
0.599135643768,0.407616603785,0.259590645513,1.05415070027,0.257,0.45,0,3,-1,703,3
0.257069855213,0.315609522722,1.39764680009,0.302820656626,0.454,0.45,2,2,1,704,3
0.498176490857,0.375385154266,0.32766301985,1.08281110065,0.573,0.45,3,3,1,705,3
0.368471228191,0.332974078477,1.16984763183,0.229041227728,0.523,0.45,2,2,1,706,3
0.485033674678,1.14569978289,0.320511167826,0.29237149691,0.471,0.45,1,1,1,707,3
1.31236179515,0.351099451514,0.31346024503,0.334137744466,0.398,0.45,0,0,2,708,3
0.338992461616,1.14428209462,0.31255816449,0.187212135608,0.453,0.45,1,1,1,709,3
0.641706242521,0.349290501942,0.681488220011,1.10977867603,0.504,0.45,3,3,1,710,3
0.201127323314,1.00543755525,0.145920919921,0.362036921702,0.433,0.45,1,1,2,711,3
0.466042441131,0.225493259338,1.04749298111,0.312949290225,0.515,0.45,2,2,1,712,3
0.428587464634,0.311851201533,0.0475080061681,1.05682417933,0.634,0.45,3,3,1,713,3
1.05583537943,0.358396387717,0.100581361574,0.336980368105,0.5,0.45,0,0,1,714,3
0.302453458049,0.22573554075,0.391819629175,1.01015073337,0.528,0.45,3,3,1,715,3
0.138454169548,0.167423260187,1.18074860779,0.267075759841,0.525,0.45,2,2,1,716,3
1.08297076733,0.403434560621,0.48266637916,0.2321726622,0.411,0.45,0,0,2,717,3
0.339258188258,0.258491329602,1.35889829914,0.211507939749,0.439,0.45,2,2,2,718,3
0.410979787311,1.0791498728,0.453307900181,0.289608723537,0.473,0.45,1,1,1,719,3
0.331842135888,0.20342365458,1.15316289168,0.224849112265,0.384,0.45,3,2,-1,720,3
0.273471393763,1.17638721238,0.428543572766,0.400069586026,0.562,0.45,1,1,1,721,3
1.14206519027,0.380892464977,0.260727115866,0.259949513928,0.523,0.45,0,0,1,722,3
1.14737270952,0.359348907467,0.51776216184,0.293124850725,0.575,0.45,1,0,-1,723,3
1.34770632158,0.224268265514,0.374989901703,0.262273048328,0.618,0.45,0,0,1,724,3
0.290777093726,0.149693668648,1.05565045261,0.167739231215,0.549,0.45,2,2,1,725,3
0.545422956474,0.257308839026,0.189680025675,1.05432094301,0.478,0.45,3,3,1,726,3
1.39853720281,0.243796441893,0.434494647261,0.327606829315,0.43,0.45,0,0,2,727,3
0.376256544952,0.229041296145,0.245457993052,1.10163021016,0.529,0.45,3,3,1,728,3
0.359614147398,0.165242889056,1.22221492172,0.269204241225,0.558,0.45,2,2,1,729,3
0.305931098302,1.04264132702,0.291957583981,0.294513760166,0.437,0.45,1,1,2,730,3
0.430191476844,0.119323975396,0.252629135246,1.20771991946,0.489,0.45,3,3,1,731,3
0.226460618556,0.781622592124,0.640540421822,0.268534128366,0.7,0.45,1,-1,0,733,3
0.228278633889,1.00953279693,0.462857091308,0.288174781134,0.0880000000003,0.45,2,1,-1,733,3
1.02295077171,0.597278221976,0.00187926151187,0.354274850741,0.483,0.45,0,0,1,734,3
0.247857044922,1.13117647358,0.379086835818,0.350787418492,0.583,0.45,1,1,1,735,3
0.301885605648,0.390643594474,1.00965376508,0.333204016218,0.556,0.45,3,2,-1,736,3
1.0662458698,0.282551905927,0.0956439676382,0.4292339898,0.536,0.45,0,0,1,737,3
0.208781642103,0.147226486894,1.01126515358,0.376985391368,0.483,0.45,2,2,1,738,3
1.18002692208,0.219878501834,0.280068061546,0.229757010448,0.478,0.45,0,0,1,739,3
0.28079853905,0.228865378413,0.111651827148,0.805510700195,0.7,0.45,3,-1,0,741,3
0.169573938663,0.115552879524,1.23051161408,0.214364362556,0.549,0.45,2,2,1,741,3
0.409434793449,0.342659051366,0.182295081714,1.07460931295,0.498,0.45,3,3,1,742,3
1.1710400306,0.388665679399,0.383551104977,0.243815981165,0.566,0.45,1,0,-1,743,3
0.0725968020568,0.099769189287,1.18801320461,0.260249987059,0.57,0.45,2,2,1,744,3
0.11118535457,1.06446647295,0.208618380244,0.278896093317,0.568,0.45,1,1,1,745,3
1.15026634553,0.031186359782,0.139411867517,0.249365016218,0.393,0.45,0,0,2,746,3
0.378184994147,1.07511134431,0.640484485027,0.165402971135,0.517,0.45,1,1,1,747,3
1.45842772292,0.0773077637082,0.062278003781,0.193675681744,0.614,0.45,0,0,1,748,3
0.0948403053177,0.0163422657438,1.19024700932,0.173194014316,0.558,0.45,2,2,1,749,3
0.0449146450455,0.00867660068399,0.0148155853547,1.18970085287,0.383,0.45,3,3,2,750,3
0.0593652846007,0.130927216998,0.453403242713,0.108299656308,0.7,0.45,2,-1,0,752,3
0.0549920926586,0.030072979559,1.23088138461,0.1020048414,0.151,0.45,0,2,-1,752,3
0.0908541127103,0.000544459961238,1.0064513384,0.0998849249906,0.427,0.45,3,2,-1,753,3
1.15811870893,3.9738760413e-05,-0.00713559438634,0.0574396733499,0.59,0.45,0,0,1,754,3
0.0523096774739,1.19739716831,-0.00772910776447,0.117225528837,0.563,0.45,1,1,1,755,3
0.0424802377052,0.0158958063819,1.00968736683,0.0941368698084,0.44,0.45,2,2,2,756,3
0.041383015028,1.1014294317,-0.00775267753151,0.164246509631,0.688,0.45,1,1,1,757,3
0.0483118293494,0.0157140669799,-0.00780388149789,1.4130723354,0.59,0.45,3,3,1,758,3
0.0511694097128,1.14076595642,0.292418643898,0.120120608176,0.589,0.45,1,1,1,759,3
0.0442849745819,0.00100998267627,-0.00106855457723,1.16292603423,0.641,0.45,3,3,1,760,3
0.0463190538461,-0.00699855947367,1.1912301364,0.110888140171,0.574,0.45,2,2,1,761,3
1.12326042578,-0.00418712437289,-0.0155870103183,0.102002693694,0.52,0.45,0,0,1,762,3
0.0122606898631,-0.00669651147003,-0.0156240435806,0.0952724113784,0.7,0.45,3,-1,0,764,3
1.32898993536,0.0829945163119,0.0368961718884,0.131115014914,0.548,0.45,0,0,1,764,3
0.218544068931,0.156545266386,1.15449205303,0.123880903787,0.45,0.45,2,2,1,765,3
0.474123230747,1.21284179476,0.173555544594,0.928010530154,0.527,0.45,1,1,1,766,3
0.208507211638,0.315861396246,1.18082155447,0.291601890881,0.453,0.45,2,2,1,767,3
0.397115667749,0.391492852038,0.0969097586185,1.14494656355,0.384,0.45,3,3,2,768,3
0.31293698576,1.13720529767,0.211873601691,0.273356769732,0.407,0.45,1,1,2,769,3
1.45312697661,0.391916310844,0.18180747433,0.289072422998,0.39,0.45,0,0,2,770,3
0.228466763584,1.18437885972,0.417781818785,0.258763317713,0.459,0.45,1,1,1,771,3
0.30443368567,0.267312105957,0.360758169508,1.07795402375,0.49,0.45,3,3,1,772,3
0.160984546202,1.13702872904,0.100149977632,0.318104284794,0.444,0.45,2,1,-1,773,3
1.13270090601,0.197056512258,0.0990345933908,0.301350294429,0.545,0.45,0,0,1,774,3
0.224056174378,0.272008557807,1.10465889164,0.346792300701,0.467,0.45,2,2,1,775,3
0.228833377411,0.354928806492,0.0856451224229,1.09820743622,0.685,0.45,3,3,1,776,3
1.20992707719,0.300484612966,0.0904444107147,0.347802336396,0.522,0.45,0,0,1,777,3
0.389144063134,0.269786770421,0.191492273788,1.06735086578,0.434,0.45,3,3,2,778,3
0.185195326078,1.23042567362,0.328504281564,0.339939935346,0.561,0.45,1,1,1,779,3
1.15410054653,0.228873473215,0.137336010577,0.38173228982,0.443,0.45,0,0,2,780,3
1.66947317407,0.512393461088,0.248229678899,0.341295076815,0.593,0.45,1,0,-1,781,3
0.229257496112,1.01026772313,0.147108605119,0.402055948943,0.0640000000003,0.45,2,1,-1,782,3
0.30631219944,1.02775262475,0.21241629472,0.32614855325,0.483,0.45,1,1,1,783,3
0.137195051988,1.09891976311,0.131803997224,0.340876918978,0.488,0.45,2,1,-1,784,3
0.281823174034,0.051513013781,0.0693738571874,1.18179244712,0.669,0.45,3,3,1,785,3
1.19749102525,0.171629249194,0.122090865357,0.357763116058,0.551,0.45,0,0,1,786,3
0.274984961796,0.211857940725,0.119662563402,1.07639132369,0.554,0.45,3,3,1,787,3
0.255272354526,0.213945837313,1.12405201536,0.349301131501,0.53,0.45,2,2,1,788,3
1.12700426828,0.472461941611,0.0797211098466,0.330032905414,0.537,0.45,0,0,1,789,3
0.216248864734,1.04329996804,0.18020975325,0.344894720662,0.489,0.45,1,1,1,790,3
1.36449035644,0.167211229267,0.176644867848,0.344274392505,0.542,0.45,0,0,1,791,3
0.19765420556,0.132327566041,1.08677084485,0.324840444046,0.502,0.45,2,2,1,792,3
0.153478582053,1.14359993847,0.150193725985,0.372858761061,0.551,0.45,1,1,1,793,3
0.0444603780262,0.0417684421768,0.618526843635,1.01430445172,0.487,0.45,3,3,1,794,3
0.0538583035801,0.266070348513,1.05989215417,0.239925019501,0.69,0.45,1,2,-1,795,3
0.19199899856,0.166065091153,0.141307284383,0.327737337333,0.7,0.45,3,-1,0,797,3
0.262861861419,0.200444584492,0.186104093767,1.00572590494,0.334,0.45,2,3,-1,797,3
1.23648660645,0.303016133716,0.177284422365,0.343908960748,0.554,0.45,0,0,1,798,3
0.0663436038878,0.144429611747,1.16974030477,0.249499408507,0.607,0.45,2,2,1,799,3
0.31264183488,0.0482617421686,0.107357084984,1.03644246325,0.514,0.45,3,3,1,800,3
1.35141738615,0.266243682068,0.151599193689,0.392648949367,0.497,0.45,0,0,1,801,3
0.202883243571,1.02573948466,0.154900130583,0.340122569811,0.405,0.45,1,1,2,802,3
0.206323478362,0.212315824149,1.0596729076,0.322560705136,0.486,0.45,2,2,1,803,3
0.148921628662,1.19030199284,0.0376494807136,0.352743678273,0.637,0.45,1,1,1,804,3
1.2234413124,0.00190688939834,0.0920191265617,0.319342737825,0.47,0.45,0,0,1,805,3
0.326112595438,0.194922853743,0.194464543788,1.07161410805,0.471,0.45,3,3,1,806,3
0.236591213067,1.00766825682,0.726876867824,0.227364494347,0.619,0.45,1,1,1,807,3
1.52188008645,0.339099482012,-0.000322156905694,0.283234239898,0.55,0.45,0,0,1,808,3
0.224626586639,0.0576819075278,1.16632836407,0.738030477642,0.652,0.45,2,2,1,809,3
0.0795260574525,0.0129030490367,0.26296956622,1.02304570694,0.553,0.45,3,3,1,810,3
1.38474487445,0.00843740059511,0.00427139512492,0.174126209952,0.531,0.45,0,0,1,811,3
0.0157677891141,0.00789241933778,0.138595122627,1.23747470447,0.51,0.45,3,3,1,812,3
0.027689344353,0.00782204089124,1.22127430976,0.125115327762,0.512,0.45,2,2,1,813,3
1.03147982034,0.00781373559756,9.87305982361e-05,0.124895432576,0.487,0.45,0,0,1,814,3
0.015541322264,1.18330950511,0.00342472282283,0.125700632455,0.514,0.45,1,1,1,815,3
0.0198477671492,2.51880995317e-05,0.0234996761497,1.05542222007,0.538,0.45,3,3,1,816,3
0.00335417195044,1.19611180825,-0.00488193813092,0.0937278406802,0.547,0.45,1,1,1,817,3
0.0498568004469,-0.00769011446486,1.35496593549,0.0897843188247,0.572,0.45,2,2,1,818,3
0.0146196166185,0.726212905908,7.87502384985e-05,0.071688124442,0.7,0.45,1,-1,0,820,3
0.0085649905457,0.00879740512875,1.01008031024,0.0735081674428,0.546,0.45,2,2,1,820,3
1.51300384311,0.0079087925516,-0.0310162357484,0.0649647074225,0.521,0.45,0,0,1,821,3
-0.00734486950605,0.00370676652094,-0.0312352591027,1.01438614179,0.523,0.45,3,3,1,822,3
0.00335351480314,-0.00667129565844,0.0989037554757,0.0667468896768,0.7,0.45,2,-1,0,824,3
0.00816324289052,-0.00135327490854,-0.00215478358296,1.17362505602,0.653,0.45,3,3,1,824,3
1.15644799794,-0.00400967988561,-0.00815147138843,0.0596766006474,0.488,0.45,0,0,1,825,3
0.0156268332878,0.000743511391735,1.17327305118,0.0586670910249,0.521,0.45,1,2,-1,826,3
2.01209589908,0.00737962999515,-0.0233331559588,0.0770368424188,0.668,0.45,0,0,1,827,3
0.0432273241161,-0.00939038218158,1.16531658779,0.0427782750338,0.621,0.45,2,2,1,828,3
0.0423831824094,1.06632722805,-0.0231708591332,0.0534004814722,0.595,0.45,1,1,1,829,3
0.0460764188221,0.0078903233274,-0.0234232232884,0.186348043669,0.7,0.45,3,-1,0,831,3
0.030472495923,0.00782018875248,0.00293881671291,0.265360539139,0.7,0.45,1,-1,0,832,3
0.095543747488,0.012450212503,0.955860593947,0.0139491494622,0.7,0.45,2,-1,0,833,3
0.0953624197527,0.0179650077903,1.03085329737,0.0134626238781,0.0300000000003,0.45,0,2,-1,833,3
0.233465247909,0.104428908779,0.199388547566,0.642625385382,0.7,0.45,3,-1,0,835,3
0.26229145094,0.211828409125,0.438692328457,0.0712917538772,0.7,0.45,2,-1,0,836,3
0.289565575177,0.0909075616717,0.0730654963326,0.208334443539,0.7,0.45,3,-1,0,837,3
0.145575090457,0.11635415577,0.108999028963,0.0567574679772,0.7,0.45,0,-1,0,838,3
1.3113799256,0.464562604258,0.428362190428,0.209397687488,0.413,0.45,1,0,-1,838,3
0.20252577113,0.104761508439,1.17186543956,0.230967653333,0.415,0.45,3,2,-1,839,3
0.131964637807,1.01608668301,0.312889646243,0.241288985865,0.558,0.45,1,1,1,840,3
0.317464662689,0.387283779631,0.294574813707,0.14637244643,0.7,0.45,0,-1,0,842,3
0.200688621231,0.0972260869311,1.03018922213,0.214135533988,0.523,0.45,2,2,1,842,3
0.133759222409,0.0437765562244,0.0457184441272,0.183262565328,0.7,0.45,1,-1,0,844,3
0.439692198551,1.05687435515,0.13650113918,0.148149457509,0.18,0.45,0,1,-1,844,3
0.264928317576,0.401263918867,1.07002738551,0.197039945213,0.467,0.45,2,2,1,845,3
0.483587451306,0.449175485787,0.276304567239,1.10847481809,0.491,0.45,3,3,1,846,3
0.792965657289,0.405570264505,0.298148459372,0.282010893287,0.7,0.45,0,-1,0,848,3
0.433288713507,0.248047752904,0.200474227589,1.02989983312,0.559,0.45,3,3,1,848,3
0.280961694993,0.600513290781,1.02849808617,0.161659933539,0.655,0.45,2,2,1,849,3
0.26616758933,1.07601725423,0.295134929696,0.205977391752,0.653,0.45,1,1,1,850,3
0.323032914951,0.489275392084,1.07628802996,0.207352262157,0.628,0.45,2,2,1,851,3
1.01954454091,0.531302194169,0.34126896755,0.134308533318,0.534,0.45,0,0,1,852,3
0.416585879935,1.03811362923,0.413884765799,0.162642624349,0.532,0.45,1,1,1,853,3
0.261686034105,0.288916798353,0.688291885064,1.03576267594,0.485,0.45,3,3,1,854,3
0.329306304904,1.04978254549,0.186819431664,0.170357083243,0.535,0.45,1,1,1,855,3
0.263460745993,0.299860789802,1.12192087328,0.209750113679,0.533,0.45,2,2,1,856,3
0.848751466175,0.356986848803,0.249611067077,0.155986360364,0.7,0.45,0,-1,0,858,3
0.33921631017,0.24685569943,0.276293939023,1.08052901355,0.58,0.45,3,3,1,858,3
1.19670527281,0.294254498097,0.256620895327,0.196995762819,0.628,0.45,0,0,1,859,3
0.292254165942,0.489007642349,1.05032299784,0.145607153703,0.583,0.45,2,2,1,860,3
0.284301069695,0.283906069635,0.386017223268,1.05463935457,0.557,0.45,3,3,1,861,3
0.335191065535,0.983278977479,0.256423322097,0.158733285611,0.7,0.45,1,-1,0,863,3
0.341737130715,1.01497896072,0.272587269491,0.166152500888,0.137,0.45,3,1,-1,863,3
0.272666671281,0.461596668296,1.07109846742,0.285707255184,0.627,0.45,2,2,1,864,3
0.251119939639,1.09335526639,0.927820610648,0.154270494049,0.575,0.45,1,1,1,865,3
1.09617333095,0.312043096054,0.284298427365,0.123539291183,0.562,0.45,0,0,1,866,3
0.356420976563,1.00846061356,0.451085263992,0.115723703805,0.655,0.45,1,1,1,867,3
0.367051021022,0.589103558101,0.517080719314,1.02648123941,0.471,0.45,3,3,1,868,4
0.391601264928,0.565233105333,1.22856833313,0.291425346086,0.422,0.45,2,2,2,869,4
0.344933768027,1.27261934994,0.375856308287,0.254279127462,0.361,0.45,1,1,2,870,4
1.18610639283,0.438405568715,0.377840348355,0.354740752678,0.335,0.45,0,0,2,871,4
0.299263654528,1.12176653124,0.765039654286,0.197652023128,0.394,0.45,1,1,2,872,4
0.258017757521,0.523623535712,1.03051568848,0.309168301319,0.28,0.45,2,2,2,873,4
1.00564865014,0.52240679282,0.38371918644,0.766866757596,0.415,0.45,0,0,2,874,4
0.37573873705,0.372480610981,1.00029628682,0.344393958987,0.351,0.45,3,2,-1,875,4
1.49155095709,0.888369739083,0.258884274964,0.327819488631,0.484,0.45,0,0,1,876,4
0.184918021785,0.678603667613,1.1325346802,0.376873516341,0.442,0.45,2,2,2,877,4
0.49826707629,0.0635284867048,0.455790888751,1.20171702989,0.523,0.45,3,3,1,878,4
0.393333501908,1.26938090601,0.302477201899,0.350169962035,0.514,0.45,1,1,1,879,4
0.435784997521,0.251016681881,0.299190595498,1.2488267045,0.464,0.45,3,3,1,880,4
0.494344475481,0.139122024604,1.16309307124,0.313274703012,0.462,0.45,2,2,1,881,4
1.07555823484,0.608938734891,0.370846624745,0.357889144469,0.442,0.45,0,0,2,882,4
0.483316463828,1.15273070224,0.411174617707,0.374373985776,0.42,0.45,1,1,2,883,4
0.497125712387,0.362270377684,1.04014581031,0.389674203995,0.429,0.45,2,2,2,884,4
0.671654187575,1.12732395865,0.368109049707,0.406675548831,0.559,0.45,1,1,1,885,4
1.03920371591,0.313789168617,0.34576147165,0.368278905013,0.468,0.45,0,0,1,886,4
0.476438122775,0.319500826302,1.17581328106,0.360376577869,0.495,0.45,2,2,1,887,4
0.452358032525,0.411442701221,0.390094206978,1.06749585217,0.374,0.45,3,3,2,888,4
1.0544335886,0.491965870091,0.346650179925,0.317796824146,0.451,0.45,0,0,1,889,4
0.513610250074,0.290640439401,0.519984308893,1.21604505166,0.456,0.45,3,3,1,890,4
0.433886252764,1.06589562478,0.550287665998,0.326713700571,0.455,0.45,1,1,1,891,4
0.496561172677,0.287772460398,1.02563037501,0.395829452861,0.403,0.45,3,2,-1,892,4
0.400273533749,0.190487012885,1.18459767514,0.351588229883,0.603,0.45,2,2,1,893,4
0.657973205599,1.14348915006,0.194435674639,0.406942134278,0.482,0.45,1,1,1,894,4
1.03953645396,0.351803320364,0.265650601967,0.377471215521,0.383,0.45,0,0,2,895,4
0.415424949777,0.379304714304,1.07435647409,0.369573076639,0.439,0.45,2,2,2,896,4
1.02880420403,0.315498703557,0.411191889809,0.384796521706,0.442,0.45,0,0,2,897,4
0.482224990585,1.01071597829,0.344325512181,0.367787935061,0.444,0.45,1,1,2,898,4
0.471140123333,0.273560920712,1.1074287583,0.424697963037,0.432,0.45,2,2,2,899,4
0.529736641506,0.31140632861,0.283009400913,1.09456335344,0.349,0.45,3,3,2,900,4
1.07888674501,0.60181900777,0.252136682359,0.340233535765,0.415,0.45,0,0,2,901,4
0.429586144818,0.20648387726,1.11999985635,0.292799745563,0.381,0.45,3,2,-1,902,4
0.393561642323,1.06558218472,0.187340803068,0.366330414959,0.436,0.45,1,1,2,903,4
0.422285515008,0.259463830442,0.409032287872,1.03618091983,0.577,0.45,3,3,1,904,4
0.416817853226,1.00675355379,0.141787886576,0.367352995678,0.484,0.45,1,1,1,905,4
0.396128056513,0.185012173768,1.00262466408,0.390849781907,0.613,0.45,2,2,1,906,4
1.15065038618,0.0419697696037,0.227052337994,0.370702069322,0.642,0.45,0,0,1,907,4
0.281448020387,0.0259619273523,1.05870056934,0.372388095632,0.499,0.45,2,2,1,908,4
1.00404647229,0.348100744386,0.220035801149,0.441277950816,0.523,0.45,1,0,-1,909,4
0.259069988728,0.432376049176,0.235040037085,0.382328928103,0.7,0.45,0,-1,0,911,4
1.17678196904,0.422262720179,0.226392390491,0.381692026946,0.161,0.45,1,0,-1,911,4
0.316982935822,0.136308927891,0.301432935268,1.23531478232,0.447,0.45,3,3,2,912,4
0.406658354585,0.733563126638,1.14535908937,0.298897226721,0.578,0.45,2,2,1,913,4
0.41858637571,0.637349335477,0.405519972474,0.483512089195,0.7,0.45,3,-1,0,915,4
0.452776970841,0.552778964039,0.378928804691,1.06763849141,0.124,0.45,0,3,-1,915,4
0.630449200079,0.430924408914,0.32615011046,1.1393194463,0.416,0.45,3,3,2,916,4
0.529804715393,0.418005943028,1.0282238069,0.39889901183,0.447,0.45,2,2,2,917,4
0.412675455816,1.15175519644,0.496856423219,0.379511961922,0.531,0.45,1,1,1,918,4
1.13241669999,0.35071763685,0.276247186537,0.381065629619,0.437,0.45,0,0,2,919,4
0.393207171268,0.414515016094,1.01359139111,0.37702567362,0.493,0.45,2,2,1,920,4
1.0397911213,0.412886799113,0.391802050767,0.413769019659,0.457,0.45,0,0,1,921,4
0.345018792724,1.00473488624,0.361336943479,0.432028951239,0.411,0.45,1,1,2,922,4
0.389430793624,0.264340014971,0.427648162495,1.07545642726,0.443,0.45,3,3,2,923,4
0.446107730616,1.00606207124,0.262300367242,0.377484489154,0.449,0.45,1,1,2,924,4
0.541922922394,0.334140335814,1.03425402272,0.516384777966,0.502,0.45,2,2,1,925,4
0.492531881309,0.319692954321,0.205325048226,1.13436323195,0.61,0.45,3,3,1,926,4
1.01187558575,0.346219461402,0.225149889802,0.401245817378,0.474,0.45,0,0,1,927,4
0.434230092769,0.272014367089,0.227687702946,1.19490762501,0.452,0.45,3,3,1,928,4
0.416738962505,0.359955055725,1.0671864598,0.347345021581,0.483,0.45,2,2,1,929,4
0.419294893179,1.14101546652,0.224971715545,0.376126654699,0.378,0.45,1,1,2,930,4
1.17744320641,0.298251217932,0.310452128791,0.421888905519,0.381,0.45,0,0,2,931,4
0.464134896436,1.13389630232,0.526454314962,0.399849661949,0.497,0.45,1,1,1,932,4
0.388812777863,0.405389517566,1.24412951439,0.404025016809,0.403,0.45,2,2,2,933,4
0.385851918066,0.311836498122,0.164353242792,1.01908023137,0.294,0.45,0,3,-1,934,4
0.570922294048,0.309159817665,0.129757510619,1.18267346373,0.424,0.45,3,3,2,935,4
0.567190674925,1.06022106158,0.349446472234,0.41143743672,0.458,0.45,1,1,1,936,4
0.540777544905,0.340319656526,0.1767248665,1.08488208437,0.445,0.45,3,3,2,937,4
1.24119393128,0.266264696949,0.11724203403,0.395633082094,0.378,0.45,0,0,2,938,4
0.33355175006,0.122328975007,1.05499510626,0.518258016757,0.62,0.45,2,2,1,939,4
0.45594513616,0.335286716313,0.156802233939,1.06273562159,0.602,0.45,3,3,1,940,4
0.361640350492,1.27103872245,0.098157754438,0.29248766831,0.485,0.45,1,1,1,941,4
0.325492526313,0.145328389817,1.23174748845,0.304615372116,0.444,0.45,2,2,2,942,4
1.32688148175,0.783559154665,0.13419160167,0.404442428696,0.41,0.45,0,0,2,943,4
0.314228546114,0.151607720834,1.11578682603,0.428388074125,0.375,0.45,2,2,2,944,4
0.461001856324,0.165302430844,0.213818709097,1.03664101398,0.387,0.45,1,3,-1,945,4
1.05058448055,0.37555223349,0.0872466862039,0.394062632925,0.547,0.45,0,0,1,946,4
0.405537386104,0.266203170018,0.132839641209,1.05643313611,0.457,0.45,3,3,1,947,4
0.404029000698,0.311999883955,1.17369310467,0.313872676316,0.414,0.45,2,2,2,948,4
0.385103033699,0.542843168235,0.220341555709,0.500894464674,0.7,0.45,3,-1,0,950,4
1.3132042282,0.0750825002554,0.121936453128,0.316077307502,0.555,0.45,0,0,1,950,4
0.244479424382,1.03931784427,0.429387614175,0.336622653006,0.483,0.45,1,1,1,951,4
0.349052077271,0.325571941833,0.238119700704,1.01141537532,0.48,0.45,3,3,1,952,4
0.231125079664,0.179175426317,1.02146703363,0.299173683739,0.434,0.45,2,2,2,953,4
0.384495745865,1.21302976414,0.201244899608,0.518728295695,0.397,0.45,1,1,2,954,4
1.11359505319,0.328932746781,0.267494574488,0.382699091563,0.307,0.45,0,0,2,955,4
0.252874030513,1.12883602344,0.432391917116,0.434263854644,0.398,0.45,1,1,2,956,4
0.278561945977,0.345316195945,1.13743331529,0.368124224768,0.417,0.45,2,2,2,957,4
1.36638403767,0.27828556977,0.162150242487,0.519972663693,0.505,0.45,0,0,1,958,4
0.316214627228,0.263138806361,0.2030589019,1.25137001304,0.459,0.45,3,3,1,959,4
0.258584485498,1.00236346953,0.590145593131,0.342168138231,0.392,0.45,1,1,2,960,4
0.32309705552,0.295378098621,0.685805528953,1.10680193216,0.518,0.45,3,3,1,961,4
1.02483048974,0.25434218272,0.0672604918481,0.391359926554,0.428,0.45,0,0,2,962,4
0.232046498649,0.419469228292,1.22363903944,0.400909106162,0.54,0.45,2,2,1,963,4
0.368989773771,0.120545029265,0.152501323825,1.13554144113,0.449,0.45,3,3,2,964,4
1.15382558776,0.255565312569,0.200633548258,0.358717393412,0.463,0.45,0,0,1,965,4
0.307057080124,0.205337130008,1.05713492917,0.378782431973,0.464,0.45,2,2,1,966,4
0.224138751795,1.07395122821,0.195606934222,0.374993778874,0.444,0.45,1,1,2,967,4
1.02786084855,0.300975442485,0.216290943394,0.423130525311,0.402,0.45,0,0,2,968,4
1.25706907855,0.241013102674,0.190098744563,0.401793939485,0.447,0.45,1,0,-1,969,4
0.246722509375,0.126449934729,1.14292219674,0.365907044252,0.479,0.45,2,2,1,970,4
1.19060247196,0.228143490766,0.360134754324,0.361577045942,0.486,0.45,0,0,1,971,4
0.320981646138,0.205276493062,0.400487824969,1.23702193242,0.463,0.45,3,3,1,972,4
0.377391535258,0.449325744102,1.2634075138,0.400266157711,0.558,0.45,2,2,1,973,4
0.341203770283,0.436955661158,0.178570067783,1.02884000555,0.586,0.45,3,3,1,974,4
0.19612538496,1.11363889139,0.179321219887,0.394831037451,0.491,0.45,1,1,1,975,4
0.42402848105,0.250701177569,0.231546556657,1.23415339379,0.419,0.45,3,3,2,976,4
1.28269151266,0.267240726291,0.158806165837,0.39624381471,0.424,0.45,0,0,2,977,4
0.388542197912,1.00422184293,0.29624387962,0.406142340461,0.408,0.45,1,1,2,978,4
0.34324741382,0.24950788934,1.09617937742,0.393445897714,0.417,0.45,2,2,2,979,4
1.15766683378,0.304283640634,0.10601173477,0.934236899324,0.428,0.45,0,0,2,980,4
0.365536873221,0.306533990494,1.02668508592,0.442640086345,0.408,0.45,2,2,2,981,4
0.260243566095,1.0920573774,0.653225926511,0.407947915191,0.445,0.45,1,1,2,982,4
1.15583851445,0.369672442883,0.239227947461,0.41397217089,0.436,0.45,0,0,2,983,4
0.283138170056,0.284271285006,0.204722422467,1.06089981649,0.427,0.45,3,3,2,984,4
1.00541265237,0.259598210184,0.205984314642,0.33478752183,0.413,0.45,1,0,-1,985,4
0.116072119703,0.327753911501,0.221281915422,1.21516621298,0.496,0.45,3,3,1,986,4
0.20389593881,0.0953736277239,1.04243211575,0.860177576902,0.552,0.45,2,2,1,987,4
0.304678507426,0.252157281438,0.296988332309,1.14248627887,0.603,0.45,3,3,1,988,4
0.251493624779,1.20392041105,0.287176076006,0.319097921233,0.487,0.45,1,1,1,989,4
0.466501985755,0.0913210566075,1.17978644222,0.402514710632,0.471,0.45,2,2,1,990,4
1.31912553079,0.315238487981,0.201593680057,0.356208438989,0.444,0.45,0,0,2,991,4
0.253184988689,1.14921841269,0.270007474541,0.319535679757,0.399,0.45,1,1,2,992,4
1.13480028672,0.268963845605,0.667621591847,0.362240453404,0.51,0.45,0,0,1,993,4
0.337215464972,0.227473841683,1.15382991378,0.397528046661,0.421,0.45,2,2,2,994,4
0.204150232032,1.04086279997,0.404964302678,0.421307530334,0.356,0.45,1,1,2,995,4
0.765113896423,0.176473961002,0.147312873221,1.15045094935,0.48,0.45,3,3,1,996,4
1.06073025161,0.338076733541,0.18146543968,0.487004816388,0.388,0.45,0,0,2,997,4
0.220984831216,0.381047667145,0.301323906262,1.28899331317,0.44,0.45,3,3,2,998,4
0.351091771691,0.298402574396,1.12777457932,0.32266306036,0.43,0.45,2,2,2,999,4
0.454859920986,0.338469302785,0.227612032063,1.14774306305,0.415,0.45,3,3,2,1000,4
0.315655407539,1.02306160791,0.513694222594,0.454769397137,0.403,0.45,1,1,2,1001,4
1.01765653145,0.37210283296,0.185505736945,0.415629590813,0.34,0.45,0,0,2,1002,4
0.26262981478,0.346622353129,1.04630565901,0.390510739368,0.38,0.45,2,2,2,1003,4
0.354865381905,0.272088046215,0.227752032388,1.07850330234,0.347,0.45,1,3,-1,1004,4
0.307867520645,0.344535883236,0.351443997103,1.00309365016,0.456,0.45,2,3,-1,1005,4
1.1239965661,0.341259461413,0.501661585276,0.156652284182,0.59,0.45,0,0,1,1006,4
0.261620237584,1.01522578068,0.210259512422,0.207104591842,0.48,0.45,1,1,1,1007,4
0.346910319115,0.30687221711,1.05326510737,0.26397089092,0.459,0.45,3,2,-1,1008,4
1.15516162735,0.558343580975,0.148131405355,0.354202719212,0.48,0.45,0,0,1,1009,4
0.328397346315,0.172893140724,0.299837405237,1.15315814095,0.481,0.45,3,3,1,1010,4
0.444649830442,0.357271049232,1.22344955357,0.337022392191,0.524,0.45,2,2,1,1011,4
0.3466644314,0.343357199512,0.19316708377,1.08694446805,0.619,0.45,3,3,1,1012,4
0.355561001413,0.295120771399,1.07387334104,0.487450738859,0.618,0.45,2,2,1,1013,4
1.1175335123,0.279332546782,0.238426682431,0.281207895959,0.495,0.45,0,0,1,1014,4
0.182256960621,1.17334935706,0.284388282362,0.348780079079,0.425,0.45,1,1,2,1015,4
0.317570441233,0.170871552272,1.03774410645,0.370033083297,0.407,0.45,2,2,2,1016,4
1.09410062017,0.301704120684,0.279172084755,0.32844487158,0.434,0.45,1,0,-1,1017,4
0.534250105532,0.8550018853,0.18931608341,0.319634857728,0.7,0.45,0,-1,0,1019,4
1.0225757534,0.675200987361,0.165489145856,0.311270492272,0.0790000000004,0.45,3,0,-1,1019,4
0.252308255729,1.04292810155,0.19332391839,0.375728656009,0.421,0.45,1,1,2,1020,4
0.230833918679,1.07942679953,0.156764974725,0.336898922778,0.384,0.45,3,1,-1,1021,4
0.993654707673,0.396371837099,0.130258768846,0.346540171242,0.7,0.45,0,-1,0,1023,4
1.29229100419,0.353295409272,0.122819960419,0.347590120234,0.0280000000004,0.45,2,0,-1,1023,4
0.270232396895,0.286928801264,0.123511189366,1.06677790314,0.521,0.45,3,3,1,1024,4
0.248824421895,1.17210201034,0.179821424004,0.360638419143,0.454,0.45,1,1,1,1025,4
0.222442006813,0.280177635156,1.05975939279,0.353052189122,0.455,0.45,2,2,1,1026,4
1.0261390019,0.549226165191,0.14330511781,0.39476715033,0.452,0.45,0,0,1,1027,4
0.209808755326,1.102962164,0.168507727222,0.350642262158,0.411,0.45,1,1,2,1028,4
1.13487675148,0.266028488879,0.182543977934,0.33441896051,0.536,0.45,0,0,1,1029,4
0.215715263815,0.316031371066,0.629086581005,0.269207369695,0.7,0.45,2,-1,0,1031,4
0.21250376948,0.184504306159,1.03935031529,0.246029602431,0.232,0.45,3,2,-1,1031,4
0.272547358742,0.346235000359,1.18759054518,0.40883879239,0.457,0.45,2,2,1,1032,4
0.242341749059,1.1565341709,0.298913784697,0.351810679338,0.468,0.45,1,1,1,1033,4
0.216292337544,0.230969917256,0.246159978656,1.19593525995,0.467,0.45,3,3,1,1034,4
1.00768004585,0.276803774013,0.15038718664,0.349380198973,0.426,0.45,0,0,2,1035,4
0.337612044354,0.27043246355,0.44179097962,1.05999475152,0.461,0.45,3,3,1,1036,4
0.323653448198,0.19967282919,1.13607002543,0.232525783236,0.475,0.45,1,2,-1,1037,4
0.288622636675,0.606287053393,0.300447969827,0.369387421293,0.7,0.45,2,-1,0,1039,4
0.309564378762,0.506940026376,1.03888996971,0.402727886294,0.218,0.45,0,2,-1,1039,4
0.22632953683,0.7800237369,1.1634412495,0.450960957855,0.412,0.45,2,2,2,1040,4
0.252154737062,1.19099491817,0.411686421959,0.402677454737,0.423,0.45,1,1,2,1041,4
1.21598130675,0.265896713066,0.236036291009,0.350244954604,0.413,0.45,0,0,2,1042,4
0.253749064823,1.16958271639,0.276215208311,0.397729166818,0.432,0.45,1,1,2,1043,4
0.237593299924,0.253904558644,0.156496832779,1.09106829099,0.421,0.45,3,3,2,1044,4
1.0273131037,0.484453766832,0.193484900016,0.408839612834,0.513,0.45,0,0,1,1045,4
0.143329547765,0.276162064244,0.188328651044,1.19354522474,0.482,0.45,3,3,1,1046,4
0.22839594585,0.28798108119,1.10017780408,0.330964338175,0.546,0.45,2,2,1,1047,4
0.238164796581,0.798740780297,0.257170008357,0.384884670301,0.7,0.45,3,-1,0,1049,4
0.258349624749,1.16648094895,0.289934160209,0.436008956225,0.51,0.45,1,1,1,1049,4
1.05323567466,0.207245502068,0.137360253988,0.359994581742,0.445,0.45,0,0,2,1050,4
0.311710388925,0.202058248352,1.09193826386,0.314628384945,0.52,0.45,2,2,1,1051,4
1.26053714193,0.259185862027,0.169351775177,0.410374154468,0.474,0.45,0,0,1,1052,4
0.242830100182,1.06464870855,0.515532011863,0.314863672629,0.503,0.45,1,1,1,1053,4
0.257686248853,0.374146911798,1.0760650358,0.328743811047,0.434,0.45,2,2,2,1054,4
0.300581104922,0.235792192444,0.109259318413,1.15572299129,0.482,0.45,3,3,1,1055,4
1.00832997813,0.334497945652,0.12537192061,0.399016304906,0.617,0.45,0,0,1,1056,4
0.168379932298,0.11855595275,0.215223020294,1.51573482765,0.527,0.45,3,3,1,1057,4
0.221756009225,0.195167194331,1.1329862033,0.305421394816,0.438,0.45,2,2,2,1058,4
0.21481456602,1.13627841591,0.210562082169,0.360262120331,0.423,0.45,1,1,2,1059,4
0.513511727517,0.167963276043,0.130815983928,1.15480867144,0.477,0.45,3,3,1,1060,4
0.304914537454,0.262426340273,1.13237353836,0.292362046786,0.535,0.45,2,2,1,1061,4
1.34779108261,0.31487682523,0.0696999506852,0.331033712284,0.464,0.45,0,0,1,1062,4
0.308720110209,1.14836928211,0.178937728561,0.345314884398,0.397,0.45,1,1,2,1063,4
1.0287671162,0.342509395375,0.243056413684,0.419516911744,0.496,0.45,0,0,1,1064,4
0.232402328876,0.294622979678,1.01577005451,0.347613081743,0.499,0.45,2,2,1,1065,4
0.311960266585,1.02998846733,0.236069538583,0.328223093178,0.43,0.45,1,1,2,1066,4
0.392914674848,0.263097892383,1.09218510629,0.340894861514,0.484,0.45,2,2,1,1067,4
0.34449969651,0.240035894169,0.181333018967,1.03818303561,0.411,0.45,3,3,2,1068,4
1.21598693505,0.233307548151,0.142009104822,0.338326333234,0.416,0.45,0,0,2,1069,4
0.158401934613,0.19791288557,0.595997095493,1.78438321825,0.507,0.45,3,3,1,1070,4
0.355822424254,1.04787919549,0.101307938839,0.428412239122,0.515,0.45,1,1,1,1071,4
0.259339033929,0.182032588189,0.38823257057,1.22991278582,0.516,0.45,3,3,1,1072,4
1.13820564717,0.285379643063,0.095259372526,0.415016990996,0.497,0.45,0,0,1,1073,4
0.213684070037,1.29420019134,0.203073098049,0.418309976341,0.463,0.45,1,1,1,1074,4
0.213698883465,0.168252529927,1.24091174843,0.667149849679,0.443,0.45,2,2,2,1075,4
1.18595705773,0.234421166857,0.548216947932,0.430806895549,0.566,0.45,0,0,1,1076,4
0.284979514758,0.233201035076,1.00638677881,0.261074469007,0.449,0.45,2,2,2,1077,4
0.274563181058,0.802842247231,0.167487926736,0.249962905731,0.7,0.45,1,-1,0,1079,4
1.32218098433,0.257162792329,0.201730047589,0.317670229366,0.527,0.45,0,0,1,1079,4
0.136205628078,0.282954037503,0.24846486599,1.04506060986,0.437,0.45,3,3,2,1080,4
0.167172392221,1.0483011424,0.189118473166,0.282563643334,0.444,0.45,1,1,2,1081,4
0.400595692917,0.299035940624,0.572927338077,1.02419563842,0.533,0.45,3,3,1,1082,4
0.277051835389,0.283447414924,1.06688936728,0.312344685627,0.515,0.45,2,2,1,1083,4
0.249914926257,0.372852982247,0.124011063307,1.08390512584,0.643,0.45,3,3,1,1084,4
0.10627956333,0.73714554482,-0.00512280086428,0.0788514625829,0.7,0.45,0,-1,0,1086,5
0.106513061835,1.11806812273,-0.00692587531162,0.0787878490985,0.0320000000004,0.45,3,1,-1,1086,5
0.232992721464,0.37431683167,0.842582377199,0.107239519496,0.7,0.45,2,-1,0,1088,5
0.209444560136,1.09719054471,0.561269521654,0.100358359784,0.466,0.45,1,1,1,1088,5
0.314623847946,0.278588987866,0.268340549711,0.880421969878,0.7,0.45,3,-1,0,1090,5
0.317036311342,0.347574539447,1.13934915189,0.16540385949,0.509,0.45,1,2,-1,1090,5
0.3012859206,0.237173147541,1.05021831439,0.150148353735,0.481,0.45,2,2,1,1091,5
0.275421169543,0.188339049181,0.079932709283,1.04013284613,0.594,0.45,3,3,1,1092,5
1.03436059505,0.298342252874,0.110796712387,0.233698348463,0.474,0.45,0,0,1,1093,5
0.196141964805,1.08790563106,0.160600858036,0.238609274925,0.47,0.45,1,1,1,1094,5
1.13680528286,0.217928820929,0.31739989927,0.250593722161,0.522,0.45,0,0,1,1095,5
0.243500610689,0.322727413248,1.07731964376,0.216916284263,0.495,0.45,2,2,1,1096,5
1.07965891946,0.254583971775,0.236251236407,0.32234472674,0.53,0.45,0,0,1,1097,5
0.188678864206,1.0920253912,0.355145785351,0.24996319949,0.481,0.45,1,1,1,1098,5
0.287156324151,0.363858065065,1.11651995929,0.292838407539,0.362,0.45,2,2,2,1099,5
0.383559399779,0.310825032869,0.207775619745,1.00047008065,0.415,0.45,3,3,2,1100,5
0.287869186192,0.447284219326,1.15094142607,0.182399236768,0.472,0.45,2,2,1,1101,5
0.480426633507,1.00166245449,0.323156022926,0.279415498366,0.503,0.45,1,1,1,1102,5
1.17987488519,0.441650487397,0.255619211956,0.2323446442,0.292,0.45,3,0,-1,1103,5
1.16169069597,0.370757100854,0.342379859218,0.275236013234,0.363,0.45,1,0,-1,1104,5
1.20233074472,0.453018606493,0.146039395458,0.289444885099,0.599,0.45,0,0,1,1105,5
0.16359934612,0.316608352028,1.090414665,0.249475922991,0.503,0.45,2,2,1,1106,5
0.820741171289,0.239564785581,0.221247936078,0.197182258407,0.7,0.45,0,-1,0,1108,5
0.239562881026,0.261464883206,0.348902798347,1.08637682006,0.603,0.45,3,3,1,1108,5
1.06450930005,0.189036744228,0.277708812396,0.245238279858,0.605,0.45,0,0,1,1109,5
0.202307628501,0.822456326554,1.04276843868,0.236599191656,0.606,0.45,2,2,1,1110,5
0.193021524052,0.201849708285,0.210896286822,1.02815478282,0.609,0.45,3,3,1,1111,5
0.19657953431,1.01825758795,0.804807296151,0.12020903952,0.584,0.45,1,1,1,1112,5
0.267869010798,0.298039519184,0.503493571321,1.11713017568,0.537,0.45,3,3,1,1113,5
0.284236411086,0.37477383137,1.02986355304,0.305447083418,0.593,0.45,2,2,1,1114,5
0.270738444158,1.0094157791,0.241332898354,0.286099522753,0.521,0.45,1,1,1,1115,5
0.219465781986,0.222570804118,1.06486264046,0.240469140631,0.426,0.45,2,2,2,1116,5
0.289359310781,0.262195073191,0.162129872713,0.227995066561,0.7,0.45,0,-1,0,1118,5
1.38814874766,0.243972129596,0.162809878041,0.248423864756,0.142,0.45,1,0,-1,1118,5
0.1549499694,1.11130365513,0.223040777492,0.286830188073,0.00200000000045,0.45,0,1,-1,1119,5
0.261645524319,0.268633820676,0.178934218385,1.15890530669,0.466,0.45,3,3,1,1120,5
1.22404588998,0.291014239559,0.304985567797,0.184686249359,0.516,0.45,0,0,1,1121,5
0.236002551677,0.391717020674,1.03347568603,0.150162598661,0.477,0.45,2,2,1,1122,5
0.185679841285,1.10607120927,0.231584018648,0.227585235784,0.438,0.45,1,1,2,1123,5
0.209962823437,0.155073110455,0.0833918658007,1.44781888584,0.47,0.45,3,3,1,1124,5
0.200127346297,1.10873276392,0.0745725366833,0.302039962273,0.503,0.45,1,1,1,1125,5
0.135263197654,0.207455791457,1.05258750807,0.315214799504,0.51,0.45,2,2,1,1126,5
0.155491698782,0.215864885955,0.196500631448,1.11073861097,0.564,0.45,3,3,1,1127,5
0.114604867606,0.147808832312,1.27868257027,0.195660951949,0.542,0.45,2,2,1,1128,5
1.19206710023,0.270703764938,0.303458202464,0.298016631719,0.523,0.45,0,0,1,1129,5
0.198591293261,0.178569115913,0.705313301767,1.00225811655,0.55,0.45,3,3,1,1130,5
1.00117631829,0.181718563833,0.268319425661,0.200978850698,0.556,0.45,0,0,1,1131,5
0.174614174567,1.04759426972,0.772113459479,0.194260919,0.536,0.45,1,1,1,1132,5
1.06042938148,0.298845934052,0.22239076122,0.324695774347,0.586,0.45,0,0,1,1133,5
0.204498924919,0.233963582275,1.14552660473,0.297218970527,0.543,0.45,2,2,1,1134,5
0.123635419787,1.0699576406,0.209068055477,0.227087138636,0.521,0.45,1,1,1,1135,5
0.362521512145,0.281497211126,0.133353758418,0.972314742312,0.7,0.45,3,-1,0,1137,5
0.38682599928,0.288398714978,0.132632488368,1.08423904081,0.0480000000005,0.45,2,3,-1,1137,5
0.215571753433,0.366596464698,0.266458165106,1.01561810849,0.493,0.45,3,3,1,1138,5
0.238075801939,0.684496076222,1.01549904381,0.27715898208,0.568,0.45,1,2,-1,1139,5
0.238133437507,0.311622879725,0.0406435812855,0.265116119089,0.7,0.45,0,-1,0,1141,5
0.226119985153,1.09285035903,0.0742843609564,0.288275564804,0.481,0.45,1,1,1,1141,5
0.172909209074,0.267191957292,1.20629257986,0.192009221103,0.409,0.45,2,2,2,1142,5
1.0950332519,0.244433052289,0.224840154946,0.321490667196,0.509,0.45,0,0,1,1143,5
0.195261912421,0.178737464184,0.17156067579,1.04657969703,0.586,0.45,3,3,1,1144,5
1.14846334346,0.178878096787,0.180966374223,0.262261908742,0.492,0.45,0,0,1,1145,5
0.197609281684,0.209702974618,1.01634319408,0.190730976633,0.448,0.45,2,2,2,1146,5
0.288708423469,0.290194947349,0.283465046188,0.881667686266,0.7,0.45,3,-1,0,1148,5
0.0820700538414,1.03351025208,0.464590908707,0.21520102173,0.631,0.45,1,1,1,1148,5
0.158933400695,0.110722984075,1.23874014179,0.18331599819,0.519,0.45,2,2,1,1149,5
0.232532953976,1.28614348264,0.0935937432358,0.264531838911,0.544,0.45,1,1,1,1150,5
0.192206206147,0.149372489533,0.539344770041,1.16131186963,0.547,0.45,3,3,1,1151,5
0.26980013014,0.105411022425,1.06995057391,0.265189140599,0.591,0.45,2,2,1,1152,5
1.09811768688,0.0750989429992,0.203975921056,0.320972162319,0.523,0.45,0,0,1,1153,5
0.272048718815,1.01803720107,0.255963379868,0.228846938622,0.504,0.45,1,1,1,1154,5
0.298223594593,0.0451403012977,0.367275149085,0.309356740049,0.7,0.45,0,-1,0,1156,5
1.09039670043,0.0367914338233,0.287782595202,0.305489633051,0.238,0.45,3,0,-1,1156,5
1.16972959236,0.0315803758045,0.18250876498,0.414879429625,0.434,0.45,0,0,2,1157,5
1.12638111302,0.204903191668,0.214589166977,0.270275788149,0.581,0.45,1,0,-1,1158,5
0.0854234122949,0.176400784425,0.168404020846,1.36549898366,0.662,0.45,3,3,1,1159,5
0.0867565276425,0.160918815402,1.25887130787,0.193605369735,0.597,0.45,2,2,1,1160,5
0.0754618486823,1.29177805195,0.0236494273638,0.15087186495,0.504,0.45,1,1,1,1161,5
0.0661964522274,0.057055217039,1.07681083043,0.150859778158,0.509,0.45,2,2,1,1162,5
0.0572856440133,0.0244927849037,0.142490545849,1.17763551358,0.633,0.45,3,3,1,1163,5
0.0471245930222,1.11672634599,0.000438182885254,0.260696361185,0.513,0.45,1,1,1,1164,5
1.03803943863,0.344576167236,0.250586107247,0.214809203166,0.495,0.45,0,0,1,1165,5
0.334518574308,0.309515049913,0.496797596711,1.01631356143,0.616,0.45,3,3,1,1166,5
1.05738877212,0.137295148575,0.294659357005,0.252363136387,0.615,0.45,0,0,1,1167,5
0.286454956537,0.0502691277952,1.22463138886,0.225766343943,0.469,0.45,2,2,1,1168,5
1.01391817485,0.320804869362,0.283310152659,0.314536846207,0.516,0.45,0,0,1,1169,5
0.225443423358,0.181226525049,1.05071949488,0.199228147972,0.445,0.45,2,2,2,1170,5
0.385378933293,0.385422512993,0.306645929298,1.02655388323,0.612,0.45,3,3,1,1171,5
0.268396190563,0.200285759694,1.03564174669,0.215180313511,0.59,0.45,1,2,-1,1172,5
0.292708600888,0.388699677545,0.3695456864,0.311944317828,0.7,0.45,3,-1,0,1174,5
0.304296250165,0.368233687668,0.369539191008,1.03824726104,0.131,0.45,2,3,-1,1174,5
0.254614663646,0.495906408631,1.06972714717,0.266633053523,0.39,0.45,1,2,-1,1175,5
0.217644193196,0.189965555118,1.18948370524,0.290205891714,0.553,0.45,2,2,1,1176,5
1.09392148992,0.0908348252387,0.194014915225,0.268782131626,0.576,0.45,0,0,1,1177,5
0.213407788054,0.150593199506,0.277161952529,1.17656285969,0.525,0.45,3,3,1,1178,5
1.16716137046,0.164942542484,0.310417685752,0.303256475615,0.527,0.45,0,0,1,1179,5
0.155107491186,1.1380384702,0.282562054953,0.31681601558,0.574,0.45,1,1,1,1180,5
1.04005860303,0.0627778801748,0.348998063523,0.221335975643,0.568,0.45,0,0,1,1181,5
0.280094761093,0.116244901226,1.10134168815,0.20894702335,0.516,0.45,2,2,1,1182,5
0.29398929929,0.225703089929,0.272481073298,1.15138333734,0.425,0.45,3,3,2,1183,5
0.139839746587,1.08688911798,0.315257217508,0.195133995024,0.499,0.45,1,1,1,1184,5
0.248031801083,0.261506228643,1.06473225667,0.272701612188,0.404,0.45,2,2,2,1185,5
0.166345134706,1.02862344444,0.0404859995625,0.302301044492,0.557,0.45,1,1,1,1186,5
0.302841418247,0.167336883941,0.570297834639,1.14152711157,0.514,0.45,3,3,1,1187,5
1.10003946995,0.156644740635,0.179173496282,0.217198279467,0.468,0.45,0,0,1,1188,5
0.076734051475,1.18018991175,0.168332116969,0.179824232944,0.4,0.45,1,1,2,1189,5
1.27678819908,0.183168908962,0.302716931243,0.276418152194,0.52,0.45,0,0,1,1190,5
0.157206495473,0.180204852306,0.333016399881,1.13738718688,0.547,0.45,3,3,1,1191,5
0.198476368473,0.234468012195,1.17045693868,0.271662772992,0.525,0.45,2,2,1,1192,5
1.24177690788,0.268710254656,0.165325500544,0.241381564348,0.504,0.45,0,0,1,1193,5
0.161819518007,0.601942547241,1.07269524657,0.256763103265,0.548,0.45,2,2,1,1194,5
0.179537518681,0.101424716068,0.203514786178,1.2944823547,0.549,0.45,3,3,1,1195,5
0.141240396402,1.04965435142,0.090819861287,0.253887253086,0.535,0.45,1,1,1,1196,5
0.210283213614,0.210024955697,1.07881325158,0.335796484861,0.441,0.45,2,2,2,1197,5
0.195915780474,1.04177226436,0.130162811794,0.266312166765,0.566,0.45,1,1,1,1198,5
0.111483916117,0.0565355380545,0.393199539701,1.02287917143,0.448,0.45,3,3,2,1199,5
1.09384226466,0.218806427888,0.135209392882,0.213863650089,0.507,0.45,0,0,1,1200,5
0.116102494741,1.10048079209,0.550171564947,0.267691741057,0.516,0.45,1,1,1,1201,5
