force_0,force_1,force_2,force_3,rt,rt_threshold,target_finger,selected_finger,score,trial,run
0.472404226041,0.561294396611,0.440759442006,0.520141723536,0.7,0.45,2,-1,0,1,0
0.373035058407,0.416119945066,0.284028465788,0.567731314016,0.7,0.45,0,-1,0,2,0
0.390209928193,0.546180204765,0.726450182338,0.369289018318,0.7,0.45,3,-1,0,3,0
0.38394631374,0.508029405536,0.406819235636,0.242696895982,0.7,0.45,1,-1,0,4,0
0.424438519007,0.464682768075,0.281631557531,0.606515540455,0.7,0.45,3,-1,0,5,0
0.487740767669,0.487380110177,0.298202399189,1.03511806678,0.09,0.45,0,3,-1,5,0
1.01635734581,0.545215040512,0.358959103343,0.302315936341,0.144,0.45,1,0,-1,6,0
0.437248012009,0.578816719918,0.841136576137,0.307040140529,0.7,0.45,2,-1,0,8,0
0.439038401923,0.48464689896,1.00080610848,0.301791075323,0.266,0.45,1,2,-1,8,0
1.13290397169,0.66885741633,0.301537954605,0.283986952722,0.491,0.45,0,0,1,9,0
0.430013532593,0.466112664894,0.834635616141,0.157697460516,0.7,0.45,2,-1,0,11,0
0.434669202022,0.446521847558,1.00040908205,0.142954737795,0.18,0.45,3,2,-1,11,0
0.406792316763,0.285045277947,1.00117736716,0.375043481305,0.521,0.45,2,2,1,12,0
1.11435021297,0.675502069643,0.271612419389,0.251501531598,0.622,0.45,0,0,1,13,0
0.431679066062,1.02204693704,0.256707080089,0.231502435046,0.571,0.45,1,1,1,14,0
0.510652327421,0.489792483386,0.304633340255,0.976023323632,0.7,0.45,3,-1,0,16,0
0.29704648578,0.878038250125,0.416337714475,0.285286933175,0.7,0.45,1,-1,0,17,0
0.279973148494,1.00445623521,0.328632769684,0.260664717273,0.086,0.45,0,1,-1,17,0
0.439028054362,0.457057074967,0.290351945179,0.74150536082,0.7,0.45,3,-1,0,19,0
0.441874177165,0.447482574322,0.140027383101,1.01216964123,0.124,0.45,2,3,-1,19,0
0.345907776653,1.02367883163,0.298484298301,0.264632237505,0.455,0.45,1,1,1,20,0
0.396259746938,0.443336019465,1.0006546288,0.202726368235,0.652,0.45,2,2,1,21,0
0.447144501595,0.480806252998,0.138575015035,1.0146920648,0.674,0.45,3,3,1,22,0
1.08464416099,0.265278421763,0.118173392037,0.296177007975,0.578,0.45,0,0,1,23,0
0.482518392617,0.370376092124,0.803608390273,0.23300621101,0.7,0.45,2,-1,0,25,0
0.423877946941,1.00594149578,0.218065603572,0.208884011326,0.648,0.45,1,1,1,25,0
1.06796558843,0.46882259147,0.131690784812,0.2091221226,0.548,0.45,0,0,1,26,0
0.505266343444,0.439095032599,0.149564002909,0.920937588466,0.7,0.45,3,-1,0,28,0
0.375028958739,1.01285769589,0.176891702238,0.273642560032,0.7,0.45,1,-1,0,29,0
0.375028958739,1.01285769589,0.176891702238,0.273642560032,0.022,0.45,3,1,-1,29,0
1.03460946828,0.465899181815,0.0850311963144,0.389877839317,0.558,0.45,0,0,1,30,0
0.421753420232,0.434017007122,0.931555490258,0.213423678083,0.7,0.45,2,-1,0,32,0
0.496052258365,0.358524114648,0.165579104282,1.00044128632,0.663,0.45,3,3,1,32,0
0.463762105084,0.252344528784,0.94831897753,0.217724678754,0.7,0.45,2,-1,0,34,0
1.0866533486,0.306699119585,0.285849767562,0.22571502509,0.615,0.45,0,0,1,34,0
0.478555653175,1.03377685318,0.215979842246,0.245080964619,0.5,0.45,1,1,1,35,0
0.442169483061,0.245195229712,1.01820432889,0.195878398336,0.529,0.45,2,2,1,36,0
0.427015197094,1.00577799595,0.155234665183,0.273606604642,0.509,0.45,1,1,1,37,0
0.486483787797,0.382280471428,0.123132839769,0.880015065904,0.7,0.45,3,-1,0,39,0
1.0040948412,0.313189670726,0.0754865190235,0.338229117226,0.52,0.45,0,0,1,39,0
0.399164947846,1.06102310082,0.147255061865,0.260118554867,0.553,0.45,1,1,1,40,0
1.18406951927,0.33253571476,0.211300666564,0.225199073293,0.628,0.45,0,0,1,41,0
0.458109816559,0.425004805096,0.0964883645825,0.763517968659,0.7,0.45,3,-1,0,43,0
0.302087726691,0.255739535538,0.986063817325,0.31243385268,0.7,0.45,2,-1,0,44,0
0.332380714835,0.287393936369,1.05890415851,0.312424933473,0.036,0.45,0,2,-1,44,0
1.04426752054,0.253762255525,0.188298034625,0.237098695263,0.018,0.45,2,0,-1,45,0
0.544675191876,0.422548542564,0.244116782368,1.0045968903,0.535,0.45,3,3,1,46,0
0.393603057775,1.02095682238,0.251870569173,0.262818170193,0.468,0.45,1,1,1,47,0
0.368580519583,0.418145780394,0.558627066952,0.222827090247,0.7,0.45,2,-1,0,49,0
0.497429934019,1.00444108989,0.165106828676,0.256822771408,0.622,0.45,1,1,1,49,0
1.10384640639,0.267933352753,0.16015790781,0.284676840124,0.534,0.45,0,0,1,50,0
0.513266397259,0.399797583361,0.140006940197,1.00034395051,0.636,0.45,3,3,1,51,0
0.32663229455,1.01724222016,0.312140468027,0.240021540557,0.663,0.45,1,1,1,52,0
0.497250500119,0.346296292433,0.0720509138911,1.04963432623,0.689,0.45,3,3,1,53,0
1.06342331201,0.32278315852,0.0679647967739,0.400816444594,0.594,0.45,0,0,1,54,0
0.422106748357,1.00770744525,0.114916665928,0.295255187126,0.691,0.45,1,1,1,55,0
0.377596463405,0.410024370715,0.765905047065,0.235766336266,0.7,0.45,2,-1,0,57,0
0.420016309944,0.396740945424,0.0637224220972,1.03506362604,0.7,0.45,3,-1,0,58,0
0.420016309944,0.396740945424,0.0637224220972,1.03506362604,0.013,0.45,2,3,-1,58,0
1.06253690267,0.360495825356,0.222149516284,0.228218953381,0.555,0.45,0,0,1,59,0
0.426003800051,0.421023083073,0.575073097201,0.177440105417,0.7,0.45,2,-1,0,61,0
1.10910364865,0.414263971378,0.209384387101,0.264256629886,0.655,0.45,0,0,1,61,0
0.506255135961,0.374335105369,0.0960740936096,1.01785570044,0.7,0.45,3,-1,0,63,0
0.506255135961,0.374335105369,0.0960740936096,1.01785570044,0.00400000000003,0.45,1,3,-1,63,0
1.31991407601,0.387139623052,0.194470391201,0.302091047925,0.472,0.45,0,0,1,64,0
0.297590546029,1.03547325864,0.205858835727,0.298613441182,0.524,0.45,1,1,1,65,0
0.497025412533,0.275052586737,0.194269586448,1.03376064291,0.561,0.45,3,3,1,66,0
1.0149666461,0.315433329262,0.154547288758,0.367328792379,0.496,0.45,0,0,1,67,0
0.250448734729,0.25542240382,1.01852415333,0.255861701559,0.545,0.45,2,2,1,68,0
0.243340981761,1.10082097258,0.106800256488,0.200697263925,0.504,0.45,1,1,1,69,0
0.319445372301,0.359969354054,0.710059925715,0.196966551728,0.7,0.45,2,-1,0,71,0
0.351895385545,0.283745237084,0.216371144084,1.05559943735,0.604,0.45,3,3,1,71,0
0.297549958637,0.325477180925,0.739770272327,0.231654597911,0.7,0.45,2,-1,0,73,0
1.1411303041,0.424061088557,0.17209697033,0.231249184965,0.589,0.45,0,0,1,73,0
0.371794063588,1.01055089486,0.259493223437,0.243273494735,0.52,0.45,1,1,1,74,0
0.414062148495,0.304615713225,0.356425202975,1.02354654552,0.622,0.45,3,3,1,75,0
1.05263079731,0.264323960975,0.255477773154,0.231136647403,0.596,0.45,0,0,1,76,0
0.427162695335,0.322066259713,0.343219778867,1.02146146178,0.595,0.45,3,3,1,77,0
0.408338470604,1.03935415757,0.237045441901,0.206370331993,0.62,0.45,1,1,1,78,0
0.398806378728,0.0659684240078,1.0941570892,0.182902702572,0.451,0.45,2,2,1,79,0
0.366382211224,1.11612892498,0.17193620765,0.187416259659,0.43,0.45,1,1,2,80,0
1.29698878862,0.329651922175,0.171355973413,0.181696299868,0.435,0.45,0,0,2,81,0
0.450397824329,0.285540812306,1.08473364556,0.227135037261,0.517,0.45,2,2,1,82,0
0.500875994016,0.332982906848,0.143377832716,1.10152630696,0.455,0.45,3,3,1,83,0
0.512942681223,0.245369230935,1.01413430702,0.20975412216,0.513,0.45,2,2,1,84,0
0.467861717618,0.426802566296,0.154853344769,1.11947828212,0.569,0.45,3,3,1,85,0
1.05518247859,0.297774404391,0.127252940056,0.261665213808,0.458,0.45,0,0,1,86,0
0.437300979729,1.14913172949,0.285437997194,0.207586857514,0.51,0.45,1,1,1,87,0
0.340816132797,0.229424514535,0.540681094275,1.08502629267,0.531,0.45,3,3,1,88,0
0.3126368385,1.12639645247,0.135316135395,0.343701204411,0.515,0.45,1,1,1,89,0
1.11867213869,0.255756780251,0.181048060347,0.284186848912,0.426,0.45,0,0,2,90,0
0.507942121364,0.372191263573,0.180300951901,1.24907644356,0.553,0.45,3,3,1,91,0
0.376560077735,0.354852413798,0.904742995955,0.164528336625,0.7,0.45,2,-1,0,93,0
0.27080716069,1.03677819102,0.324988192082,0.148039951018,0.506,0.45,1,1,1,93,0
0.36809838745,0.199714573966,1.01538467812,0.209553010782,0.462,0.45,2,2,1,94,0
1.12084639403,0.317860076782,0.291551009457,0.211259733908,0.441,0.45,0,0,2,95,0
0.504346114821,0.152838078448,1.02158674959,0.192025194768,0.535,0.45,2,2,1,96,0
1.13628164065,0.317832089946,0.376912728113,0.171151264364,0.441,0.45,0,0,2,97,0
0.428963729011,0.3132706125,0.229816938066,1.15635821006,0.476,0.45,3,3,1,98,0
0.361184885131,1.10352585901,0.273042273418,0.223113914881,0.507,0.45,1,1,1,99,0
0.350928219887,0.305061496508,0.467180618992,1.03681761408,0.508,0.45,3,3,1,100,0
1.08419181888,0.336602412407,0.194457582657,0.278080969118,0.488,0.45,0,0,1,101,0
0.398112739293,1.07949512299,0.281626210168,0.292905482217,0.464,0.45,1,1,1,102,0
0.38250948085,0.27270914582,0.878754415883,0.245635125819,0.7,0.45,2,-1,0,104,0
0.305113624233,1.10734814506,0.236668559082,0.168458603237,0.514,0.45,1,1,1,104,0
1.13532093723,0.148978548338,0.271703704522,0.209071255432,0.416,0.45,0,0,2,105,0
0.331017036659,0.275098867276,1.03775945463,0.203616105645,0.395,0.45,2,2,2,106,0
0.369398736594,0.406490620384,0.158845886237,1.02711966212,0.532,0.45,3,3,1,107,0
0.288201090677,0.287726428573,1.09519928409,0.113509967113,0.52,0.45,2,2,1,108,0
0.40406496987,0.364121388914,0.103595662455,1.08268171933,0.594,0.45,3,3,1,109,0
1.13258581123,0.313765214124,0.219848830635,0.259643866235,0.497,0.45,0,0,1,110,0
0.351245778923,1.14818255379,0.247664142553,0.256401556175,0.45,0.45,1,1,1,111,0
0.389435993751,0.338593620773,0.419279090318,1.03026718021,0.645,0.45,3,3,1,112,0
0.248057003904,1.18149943419,0.181601826641,0.267871099395,0.522,0.45,1,1,1,113,0
1.24648780983,0.164929747101,0.209537509307,0.265987772224,0.424,0.45,0,0,2,114,0
0.410535792426,0.23628756458,0.205402127207,1.17054907201,0.518,0.45,3,3,1,115,0
0.308601787724,0.297086199394,1.05811563542,0.247446999276,0.523,0.45,2,2,1,116,0
1.11258841063,0.271016717788,0.22680877226,0.27810685983,0.503,0.45,0,0,1,117,0
0.35013848016,0.222458165947,1.01172824897,0.238510841684,0.523,0.45,2,2,1,118,0
0.35651288064,1.10828415848,0.226375828175,0.229902245125,0.5,0.45,1,1,1,119,0
0.420525653455,0.24082858754,1.09275534459,0.210524788816,0.579,0.45,2,2,1,120,0
0.372590341107,1.12061285518,0.309770721986,0.209437834583,0.603,0.45,1,1,1,121,0
1.01338852216,0.344673522242,0.248962164643,0.267133450769,0.501,0.45,0,0,1,122,0
0.41206119717,0.363996957598,0.154795341008,1.03628674907,0.476,0.45,3,3,1,123,0
0.31536462393,1.02463929669,0.306296080357,0.238100757857,0.503,0.45,1,1,1,124,0
0.454285286175,0.270394358877,0.234647333056,1.07790165631,0.552,0.45,3,3,1,125,0
1.05563369799,0.257400696438,0.174806997374,0.310145030862,0.434,0.45,0,0,2,126,0
0.311343122586,1.02129787773,0.565812575316,0.234392689931,0.485,0.45,1,1,1,127,0
0.388150569696,0.289400739974,1.01331150146,0.244895930171,0.508,0.45,2,2,1,128,0
0.382415689874,0.245459894537,0.146556632066,1.14453020395,0.425,0.45,3,3,2,129,0
0.351682037833,0.341966799138,0.947269772714,0.168532763604,0.7,0.45,2,-1,0,131,0
1.07043472208,0.472183548044,0.162511041589,0.205502699483,0.533,0.45,0,0,1,131,0
0.335295058183,0.347596955048,1.07459926067,0.262426173846,0.562,0.45,2,2,1,132,0
0.419378626916,0.340263510029,0.121101327094,1.0045738357,0.468,0.45,3,3,1,133,0
0.265325359462,1.09467656307,0.529454080008,0.145385614745,0.467,0.45,1,1,1,134,0
1.21903216766,0.192198752097,0.153506575863,0.273811950966,0.44,0.45,0,0,2,135,0
0.328424261038,0.203063062501,0.723804413828,1.06645674594,0.578,0.45,3,3,1,136,0
1.19138282399,0.212578973888,0.170071914225,0.278314068713,0.587,0.45,0,0,1,137,0
0.29077008422,1.0132055706,0.294357366705,0.289566708842,0.644,0.45,1,1,1,138,0
0.291688710189,0.252137478394,0.901927139748,0.265435362449,0.7,0.45,2,-1,0,140,0
1.03312765181,0.143573921433,0.153564548699,0.318495752646,0.527,0.45,0,0,1,140,0
0.511923677596,0.375312716223,0.904857195061,0.311939686988,0.7,0.45,2,-1,0,142,0
0.504606235305,0.37526558463,1.02273027072,0.310803861146,0.0720000000001,0.45,1,2,-1,142,0
0.390343022679,0.230683272443,0.428055735565,1.04159218813,0.509,0.45,3,3,1,143,0
0.394900366176,0.225819097555,1.01623375517,0.154191389686,0.534,0.45,2,2,1,144,0
1.10159453237,0.273928326986,0.130300833939,0.197092817856,0.536,0.45,0,0,1,145,0
0.398457226822,1.09839553309,0.243933690068,0.20860172023,0.517,0.45,1,1,1,146,0
0.38106111053,0.168230686313,0.483720216677,1.02589685422,0.499,0.45,3,3,1,147,0
0.28367132432,1.00464682695,0.137003888757,0.21919596576,0.476,0.45,1,1,1,148,0
1.03749590155,0.155954930845,0.155456931058,0.247662753299,0.457,0.45,0,0,1,149,0
0.453902723483,0.214880465055,0.197125751819,1.08386763484,0.508,0.45,3,3,1,150,0
0.370344012531,0.239417316491,0.886660107284,0.27857876963,0.7,0.45,2,-1,0,152,0
0.420061924741,0.245581851301,0.159329441069,1.04775168111,0.662,0.45,3,3,1,152,0
1.02171438285,0.182547759911,0.0953052853505,0.261833656208,0.643,0.45,0,0,1,153,0
0.446179165581,0.221811694373,1.07104067975,0.206418652041,0.622,0.45,2,2,1,154,0
0.360416650602,1.00167697322,0.426806655334,0.178933491245,0.602,0.45,1,1,1,155,0
0.384264388382,0.127172549759,1.04393753994,0.422420694596,0.625,0.45,2,2,1,156,0
0.486483472197,0.212505339777,0.0644159642675,1.07789657741,0.554,0.45,3,3,1,157,0
1.07219296953,0.195421696898,0.0930097445025,0.252398657629,0.439,0.45,0,0,2,158,0
0.322066550344,1.17592186664,0.381230455387,0.117632511603,0.573,0.45,1,1,1,159,0
1.19996822558,0.183410377688,0.12075375532,0.292679753884,0.531,0.45,0,0,1,160,0
0.435911239812,0.256229263902,0.222892929278,1.00158491948,0.49,0.45,3,3,1,161,0
0.347412403503,1.02469409179,0.15037919096,0.234235365796,0.49,0.45,1,1,1,162,0
0.694277166304,0.150156857506,0.188651540402,1.02412535358,0.546,0.45,3,3,1,163,0
0.314094892875,0.251650569085,0.842133773046,0.227908318539,0.7,0.45,2,-1,0,165,0
1.01429706371,0.174325349231,0.116479581737,0.250570063893,0.459,0.45,0,0,1,165,0
0.415481629402,0.238767929847,1.01998419593,0.264698244446,0.486,0.45,2,2,1,166,0
0.358903642147,1.02381547163,0.134535905893,0.495031301629,0.542,0.45,1,1,1,167,0
0.315968627556,0.215086844112,1.00209411719,0.302498909267,0.548,0.45,2,2,1,168,0
0.338072022269,1.197792847,0.153687397192,0.294150615105,0.584,0.45,1,1,1,169,0
1.04320976168,0.25782638781,0.114134779072,0.31355102596,0.609,0.45,0,0,1,170,0
0.412623025476,0.287170889128,0.168415715333,1.09959594468,0.56,0.45,3,3,1,171,0
0.238177454155,1.04352618152,0.158283185119,0.254338140631,0.515,0.45,1,1,1,172,0
0.344063346555,0.172490776056,0.531570182088,1.29523257483,0.546,0.45,3,3,1,173,0
1.11588693849,0.199485600551,0.111751294507,0.264603971056,0.525,0.45,0,0,1,174,0
0.289152788262,1.03766619673,0.188367470934,0.266631447131,0.459,0.45,1,1,1,175,0
0.351955105129,0.262671298059,0.474705074145,0.287515814683,0.7,0.45,2,-1,0,177,0
0.329215751421,0.204649065933,0.199929074261,1.00437452077,0.513,0.45,3,3,1,177,0
0.344314457747,0.218997298831,1.08486179068,0.426802673136,0.614,0.45,2,2,1,178,0
1.0277249879,0.334624349681,0.161323715268,0.340372469306,0.569,0.45,0,0,1,179,0
0.314943065923,0.323900724918,1.00403965571,0.260433109275,0.57,0.45,2,2,1,180,0
0.342792245409,0.275532996032,0.220553167867,1.00628163298,0.498,0.45,3,3,1,181,0
1.11308994928,0.253530435782,0.152744246708,0.316392066947,0.519,0.45,0,0,1,182,0
0.306021094643,1.03278711061,0.230346427575,0.305095194175,0.446,0.45,1,1,2,183,0
1.12823448391,0.183621827078,0.400357431654,0.275177851249,0.669,0.45,0,0,1,184,0
0.396100109288,0.318225729783,0.231476160396,1.05947047484,0.625,0.45,3,3,1,185,0
0.310134930136,1.14814668269,0.250356545927,0.254081905717,0.581,0.45,1,1,1,186,0
0.461201518851,0.160195005109,0.203808903608,1.09660544326,0.53,0.45,3,3,1,187,0
0.305864802704,0.218412535066,1.01007381866,0.242453885342,0.547,0.45,2,2,1,188,0
1.13752846503,0.229875143727,0.0873421662271,0.283576811937,0.525,0.45,0,0,1,189,0
0.381596926191,0.298668386158,1.04032539351,0.337914827965,0.529,0.45,2,2,1,190,0
0.36799768677,1.12171775211,0.249013392426,0.313014043011,0.452,0.45,1,1,1,191,0
0.44544547331,0.248426173363,1.05827689518,0.33455225837,0.504,0.45,2,2,1,192,0
1.02093867689,0.208012267434,0.173829646849,0.373021193423,0.503,0.45,0,0,1,193,0
0.361737400006,0.270193589191,0.373754558297,1.08474256011,0.554,0.45,3,3,1,194,0
0.296219411892,1.05652335159,0.219616581344,0.371902132398,0.555,0.45,1,1,1,195,0
0.427333592538,0.166755485875,0.248209017676,1.01001596869,0.502,0.45,3,3,1,196,0
1.02377871269,0.21081948428,0.139139610749,0.376537280251,0.497,0.45,0,0,1,197,0
0.322101840283,1.08045616183,0.209798004965,0.373467622476,0.451,0.45,1,1,1,198,0
0.324230286206,0.250326797751,1.04638286549,0.346120553189,0.493,0.45,2,2,1,199,0
0.4208279903,1.12626377193,0.208231759778,0.37203700759,0.517,0.45,1,1,1,200,0
1.09732043773,0.255912060413,0.197591254826,0.411507263781,0.471,0.45,0,0,1,201,0
0.285120423142,1.03016505684,0.319868262173,0.382245352764,0.474,0.45,2,1,-1,202,0
0.367874232426,0.238693899418,0.277781952645,1.08688393277,0.665,0.45,3,3,1,203,0
0.278091536901,0.252958384509,0.873915487596,0.330118302308,0.7,0.45,2,-1,0,205,0
0.292104435502,1.00392464975,0.227553044765,0.293165629789,0.543,0.45,1,1,1,205,0
0.395209543107,0.241039796532,0.343823976424,1.10371532132,0.593,0.45,3,3,1,206,0
1.04474027918,0.22009845123,0.164930635881,0.319148677039,0.541,0.45,0,0,1,207,0
0.274513964296,1.11823980161,0.312361689442,0.303444847409,0.494,0.45,1,1,1,208,0
1.0174752608,0.184825489283,0.40544161745,0.265475464665,0.7,0.45,0,-1,0,210,0
1.0174752608,0.184825489283,0.40544161745,0.265475464665,0.00700000000008,0.45,3,0,-1,210,0
0.359939582442,0.239846295385,1.10188816819,0.669376576064,0.527,0.45,2,2,1,211,0
0.352634294071,0.273184072361,0.194128914889,1.04353478258,0.551,0.45,3,3,1,212,0
0.228843537532,1.00881098409,0.139229355843,0.227532643364,0.527,0.45,1,1,1,213,0
0.264540325063,0.268280573658,0.789630709226,0.202876973125,0.7,0.45,2,-1,0,215,0
1.02001202958,0.144875689303,0.172452138019,0.205221728413,0.479,0.45,0,0,1,215,0
0.374434016347,0.36415926255,1.00943312549,0.261245689561,0.573,0.45,2,2,1,216,0
0.352287233722,1.12721744653,0.284826670844,0.22055109759,0.666,0.45,0,1,-1,217,1
1.00598747145,1.52612732054,0.206014108471,0.233829667167,0.0610000000001,0.45,2,1,-1,218,1
0.32073328885,1.14835380457,0.171525798625,0.237423110673,0.542,0.45,1,1,1,219,1
0.365053725086,0.2249009461,0.339783135848,1.07859449575,0.521,0.45,3,3,1,220,1
0.289584238824,1.15658083599,0.144588022775,0.203902216786,0.521,0.45,1,1,1,221,1
0.335838490827,0.277189224435,1.03992741902,0.211390529368,0.522,0.45,2,2,1,222,1
0.300569283289,0.262584314272,0.232560155548,1.1006762878,0.522,0.45,3,3,1,223,1
0.324572752986,0.361264812015,1.01992786897,0.268688299135,0.602,0.45,2,2,1,224,1
1.05968070457,0.342062166674,0.138083137336,0.300750566471,0.603,0.45,0,0,1,225,1
0.318929228762,1.08356244789,0.174711763553,0.270030644665,0.507,0.45,1,1,1,226,1
1.02713137642,0.440610408946,0.178237572637,0.270654046974,0.538,0.45,0,0,1,227,1
0.378668535042,0.317167941445,0.210903326946,1.04278693141,0.476,0.45,3,3,1,228,1
1.06531125667,0.354729124358,0.152618367523,0.220933025756,0.551,0.45,0,0,1,229,1
0.386602645835,0.294584624499,0.160754441122,1.13945394685,0.484,0.45,3,3,1,230,1
0.327460112109,0.271970021099,1.01262539697,0.231525151986,0.59,0.45,2,2,1,231,1
0.294795067884,1.00748462403,0.418041806849,0.130929845859,0.501,0.45,1,1,1,232,1
0.333383562653,0.23117289087,1.01626796159,0.130710552123,0.552,0.45,2,2,1,233,1
0.440131721722,0.306177727367,0.10776863825,1.05229607127,0.581,0.45,3,3,1,234,1
0.276426530849,1.00943330649,0.124887359311,0.22061828159,0.532,0.45,1,1,1,235,1
1.15307414931,0.217632245523,0.152309265213,0.261508954284,0.461,0.45,0,0,1,236,1
0.379233264578,1.17543760087,0.165181257776,0.262591906385,0.466,0.45,1,1,1,237,1
0.358154275778,0.239056264877,0.418257603489,1.05244755187,0.473,0.45,3,3,1,238,1
1.00028460697,0.235617537385,0.0950944307372,0.310927182815,0.452,0.45,0,0,1,239,1
0.385130723658,0.271903515094,0.43013107579,0.298478655659,0.7,0.45,2,-1,0,241,1
1.0259854044,0.169114440005,0.274819269092,0.266489865848,0.511,0.45,0,0,1,241,1
0.395445982865,0.24355064311,0.237008982353,1.08073388146,0.515,0.45,3,3,1,242,1
0.256525893418,1.07676749571,0.380114184657,0.164845550039,0.547,0.45,1,1,1,243,1
0.301357975387,0.211108340583,1.07184726985,0.225969149055,0.488,0.45,2,2,1,244,1
0.326335437307,1.02116307852,0.149904204211,0.267408047319,0.471,0.45,1,1,1,245,1
0.438994650011,0.278576110672,0.17644295056,1.20558292541,0.548,0.45,3,3,1,246,1
0.304577204138,0.23651618446,1.0177773705,0.253505526516,0.627,0.45,2,2,1,247,1
1.0752018127,0.219056868738,0.0917119888008,0.230597035001,0.58,0.45,0,0,1,248,1
0.345881394364,1.06789919458,0.232385447295,0.211936054273,0.571,0.45,1,1,1,249,1
1.07245260473,0.226666499982,0.191636649236,0.432023936722,0.572,0.45,0,0,1,250,1
0.312933583994,0.351897575382,0.801638127176,0.212990505519,0.7,0.45,2,-1,0,252,1
0.293238603752,0.161262275594,0.207667798758,1.06950480764,0.552,0.45,3,3,1,252,1
1.07586259476,0.245411957723,0.244610896512,0.218007926439,0.582,0.45,0,0,1,253,1
0.29136230171,0.173566515937,1.03166341856,0.167739223869,0.488,0.45,2,2,1,254,1
0.275304197997,0.467374663774,0.119293394679,1.01621378605,0.618,0.45,3,3,1,255,1
0.207042281989,1.00786831729,0.263217275746,0.144904360995,0.524,0.45,1,1,1,256,1
0.199909343447,0.151091959222,1.12191556152,0.221473456365,0.526,0.45,2,2,1,257,1
0.307200625062,1.1701625748,0.158557444967,0.200796415345,0.602,0.45,1,1,1,258,1
0.307166088557,0.203177105809,0.298215090073,1.15299833943,0.489,0.45,3,3,1,259,1
1.05874340552,0.286436207526,0.15126319837,0.288798899417,0.487,0.45,0,0,1,260,1
0.216664631466,1.05037041727,0.717432608947,0.109691254034,0.49,0.45,1,1,1,261,1
1.03993980037,0.24369184972,0.400860753757,0.281755426122,0.568,0.45,0,0,1,262,1
0.256459866507,0.21079908918,0.302258649002,1.20873744355,0.477,0.45,3,3,1,263,1
0.335780782962,0.272365543373,1.03559543387,0.0671215107805,0.528,0.45,2,2,1,264,1
1.19781835035,0.351812656636,0.118336528719,0.192829703385,0.55,0.45,0,0,1,265,1
0.247697971412,0.30016105955,1.01695378682,0.187576861416,0.479,0.45,2,2,1,266,1
0.37134962073,1.00569587844,0.159088275511,0.493452121033,0.479,0.45,1,1,1,267,1
0.228285493805,0.155952820113,0.828621713216,1.14259201058,0.551,0.45,3,3,1,268,1
0.286458812688,0.204090674119,1.07668501163,0.117143150266,0.576,0.45,2,2,1,269,1
0.239743649886,0.189511815056,0.636355100149,1.06150077464,0.574,0.45,3,3,1,270,1
0.301955931648,1.01678750116,0.163616635735,0.219036381667,0.573,0.45,1,1,1,271,1
0.250162398793,0.214583045172,1.11287681654,0.317289098413,0.549,0.45,2,2,1,272,1
1.23321915422,0.448149996021,0.152533678467,0.253448710327,0.55,0.45,0,0,1,273,1
0.205826005647,1.11906571019,0.187353817906,0.229677934337,0.478,0.45,1,1,1,274,1
1.20285270411,0.217759180332,0.231907829433,0.297435863446,0.576,0.45,0,0,1,275,1
0.326189111743,0.300351387269,0.275169805676,1.00534400706,0.526,0.45,3,3,1,276,1
1.18647317844,0.197794052108,0.243665843429,0.259192432008,0.525,0.45,0,0,1,277,1
0.247152999946,0.296874345308,1.00247093226,0.366147706038,0.601,0.45,2,2,1,278,1
0.247304959208,1.14235662728,0.165843688119,0.294462126454,0.506,0.45,1,1,1,279,1
0.212620598999,0.196614776235,1.00234168951,0.314653971616,0.46,0.45,3,2,-1,280,1
0.113004942652,1.05456959587,0.147152406634,0.374134018806,0.574,0.45,1,1,1,281,1
0.244412363079,0.124544901308,1.09437090861,0.370990319044,0.521,0.45,2,2,1,282,1
0.334644158843,0.328064850806,0.150323029573,1.08141545385,0.521,0.45,3,3,1,283,1
0.246275026702,0.232785297617,1.0019478845,0.195026326935,0.63,0.45,2,2,1,284,1
1.17557234329,0.190997979199,0.106832498027,0.235059214035,0.54,0.45,0,0,1,285,1
0.201130515,1.03062253426,0.167138933403,0.200219480173,0.47,0.45,1,1,1,286,1
1.07350501415,0.233958307639,0.277155796293,0.392335367122,0.501,0.45,0,0,1,287,1
0.227815045109,0.229091571357,0.33952333527,1.04695463446,0.454,0.45,3,3,1,288,1
1.11339318168,0.23904798066,0.193472952616,0.239477459942,0.547,0.45,0,0,1,289,1
0.228001403682,0.222340914584,0.306152025721,1.05938344849,0.497,0.45,3,3,1,290,1
0.259439989595,1.01932595736,0.338246146125,0.225699124595,0.564,0.45,1,1,1,291,1
0.268214480174,0.197187574391,1.01465844069,0.306320093905,0.465,0.45,2,2,1,292,1
0.344509175716,0.245512188342,0.506158177043,1.23472336504,0.561,0.45,3,3,1,293,1
0.241223828277,0.295401822765,0.959007469165,0.25993648887,0.7,0.45,2,-1,0,295,1
0.240695926822,1.11995865071,0.145704869791,0.319905064151,0.52,0.45,1,1,1,295,1
0.283222690173,0.180720322216,0.32645146378,1.02725287879,0.478,0.45,3,3,1,296,1
1.04246346383,0.259883137023,0.203715838412,0.324350083441,0.577,0.45,0,0,1,297,1
0.303809327471,1.13395034256,0.641988185892,0.254268100949,0.7,0.45,1,-1,0,299,1
0.303809327471,1.13395034256,0.641988185892,0.254268100949,0.00500000000012,0.45,0,1,-1,299,1
0.237899087772,0.277417132982,1.005359359,0.269628986817,0.464,0.45,2,2,1,300,1
1.02224308015,0.250443698494,0.179329534766,0.285104149074,0.628,0.45,0,0,1,301,1
0.273013984364,1.03146654726,0.20594316787,0.294546724507,0.552,0.45,1,1,1,302,1
0.272433056994,0.167417001288,1.03138360567,0.315184191148,0.482,0.45,2,2,1,303,1
0.276914381136,0.180394993091,0.138882340824,1.09860857793,0.433,0.45,3,3,2,304,1
0.246883310957,0.273187124091,1.01006726344,0.186703787689,0.557,0.45,2,2,1,305,1
0.313001060734,1.02652712441,0.180250628459,0.168391008051,0.581,0.45,1,1,1,306,1
0.282846717344,0.173480488749,0.322846529838,1.06202871294,0.563,0.45,3,3,1,307,1
1.00897980232,0.209197344314,0.104621805088,0.242547587254,0.561,0.45,0,0,1,308,1
0.198571150921,0.602722545015,1.00249456765,0.178813534261,0.538,0.45,2,2,1,309,1
0.772524382458,0.346931011075,0.110406580225,0.251188159535,0.7,0.45,0,-1,0,311,1
0.480474991924,0.0929103744163,0.331239910004,1.06931954278,0.559,0.45,3,3,1,311,1
0.131572281059,1.03087862258,0.156285730229,0.221942185474,0.536,0.45,1,1,1,312,1
1.03204676074,0.195463090316,0.13234416931,0.223685394159,0.469,0.45,0,0,1,313,1
0.277641981267,0.221868234879,1.04272965382,0.277529160795,0.496,0.45,2,2,1,314,1
0.25454741851,0.239744866696,0.289410153769,1.10229250125,0.5,0.45,3,3,1,315,1
0.410814803927,1.13593613757,0.145921934185,0.177479008418,0.577,0.45,1,1,1,316,1
0.126062861654,0.284500948622,1.00603650631,0.281459212419,0.481,0.45,2,2,1,317,1
0.509496446129,1.00342955054,0.223928173106,0.192184438492,0.552,0.45,1,1,1,318,1
0.202417379198,0.133012102354,0.702746620824,1.36341952486,0.505,0.45,3,3,1,319,1
1.04702397623,0.226960718723,0.159231724059,0.230760411701,0.458,0.45,0,0,1,320,1
0.178699798894,0.180812632817,0.461947213688,1.12887631461,0.458,0.45,3,3,1,321,1
0.155813592065,0.241185448147,1.0687436868,0.132403976979,0.486,0.45,2,2,1,322,1
1.08554813306,0.428230601689,0.121341137067,0.177294831269,0.518,0.45,0,0,1,323,1
0.167255198259,1.02203542727,0.284903049125,0.228249345304,0.472,0.45,1,1,1,324,1
1.12510755397,0.162633202301,0.439913112367,0.305127721463,0.499,0.45,0,0,1,325,1
0.200801381679,0.205363953528,1.09681898439,0.267082009871,0.503,0.45,2,2,1,326,1
0.228700989665,1.03995943888,0.672986024917,0.277920050481,0.61,0.45,1,1,1,327,1
0.278328666803,0.265565595151,0.12145292745,1.00878197561,0.496,0.45,3,3,1,328,1
0.21391261417,0.246031647352,1.0070598987,0.077780733322,0.522,0.45,2,2,1,329,1
0.173277008525,0.240399653146,0.137812197087,1.09103343452,0.504,0.45,3,3,1,330,1
0.247095609361,1.12618105613,0.203332760428,0.167291802023,0.51,0.45,1,1,1,331,1
0.175978489469,0.54775096443,1.06158105795,0.192511904611,0.486,0.45,2,2,1,332,1
1.13322554671,0.222085318664,0.137383072458,0.343885344751,0.444,0.45,0,0,2,333,1
0.259766367577,0.224328885329,0.610734963978,1.17291395563,0.526,0.45,3,3,1,334,1
1.14618715513,0.182809552605,0.168739841519,0.270138702553,0.514,0.45,0,0,1,335,1
0.295446245884,1.02735523324,0.216350330901,0.250110019778,0.487,0.45,1,1,1,336,1
1.12135277886,0.198481361524,0.300903247887,0.267603635239,0.563,0.45,0,0,1,337,1
0.243937244416,0.175721802809,1.08644793858,0.227846559247,0.471,0.45,2,2,1,338,1
0.284664589373,0.165415723444,0.0769358016986,1.08988233155,0.354,0.45,3,3,2,339,1
0.388559988781,0.810171795292,0.1259980768,0.0565724805975,0.7,0.45,1,-1,0,341,1
0.210883717655,0.130183742101,0.594138704794,1.00441243148,0.561,0.45,3,3,1,341,1
0.218828184665,0.317476462,0.362160525634,1.06388831054,0.542,0.45,2,3,-1,342,1
0.166879441637,1.11797366797,0.153177875459,0.180434143265,0.565,0.45,1,1,1,343,1
0.19795574193,0.140921130575,1.04522469454,0.19280969447,0.547,0.45,2,2,1,344,1
1.13899933481,0.189570536139,0.210572524445,0.189066520001,0.527,0.45,0,0,1,345,1
0.168810795512,0.208434455324,0.267798679787,1.27592050154,0.454,0.45,3,3,1,346,1
1.07442719502,0.489707621642,0.184246006006,0.109552694926,0.56,0.45,0,0,1,347,1
0.136705998924,1.00608663588,0.266201152968,0.28396090398,0.425,0.45,1,1,2,348,1
1.19217860236,0.140744479775,0.232663386292,0.308437216316,0.531,0.45,0,0,1,349,1
0.170804892688,0.167719192079,0.711301185616,1.08075779828,0.491,0.45,3,3,1,350,1
0.229282028811,1.0476354183,0.300046263698,0.136874171297,0.547,0.45,1,1,1,351,1
0.253287862409,0.184173390367,1.08461083409,0.20324429044,0.555,0.45,2,2,1,352,1
0.228529492268,1.08189562292,0.306908506573,0.214765048877,0.7,0.45,1,-1,0,354,1
0.228529492268,1.08189562292,0.306908506573,0.214765048877,0.00600000000014,0.45,3,1,-1,354,1
0.198909715661,1.00092771053,0.858914600378,0.107058540135,0.587,0.45,2,1,-1,355,1
0.997186398894,0.274825401269,0.0974854031105,0.141539302658,0.7,0.45,0,-1,0,357,1
1.12829318683,0.279325131941,0.102007573052,0.151979984578,0.0330000000001,0.45,1,0,-1,357,1
1.14572591373,0.289825812964,0.155073183826,0.206248097836,0.614,0.45,0,0,1,358,1
0.241284547775,0.185904764686,1.10072136811,0.190482170878,0.493,0.45,2,2,1,359,1
0.235611730087,0.196475766079,0.0774319460998,1.24993178218,0.395,0.45,3,3,2,360,1
1.12321252719,0.186784814023,0.228306610058,0.172433590078,0.546,0.45,0,0,1,361,1
0.20906220689,0.226354044319,1.01956881006,0.191014891797,0.501,0.45,2,2,1,362,1
0.17016834041,1.19445953892,0.340384732726,0.179846365343,0.553,0.45,1,1,1,363,1
0.188910093373,0.130500613166,0.730343992917,1.45151849536,0.536,0.45,3,3,1,364,1
0.166222030355,1.03065260906,0.161399702528,0.235921771601,0.513,0.45,1,1,1,365,1
0.148969658968,0.0662088547845,1.19517160903,0.101451889012,0.44,0.45,2,2,2,366,1
0.209332237119,0.212514623263,0.249159151591,1.2040377935,0.571,0.45,3,3,1,367,1
1.08186525543,0.173985081714,0.15428093204,0.204263147471,0.527,0.45,0,0,1,368,1
0.183759738271,1.05129412079,0.285982651595,0.120675629936,0.463,0.45,1,1,1,369,1
1.11763997193,0.119000562627,0.391258393018,0.342081299641,0.499,0.45,0,0,1,370,1
0.24408380224,0.0712816062009,0.309829248488,1.08589260458,0.504,0.45,3,3,1,371,1
0.194634054468,0.217641244274,1.00006585317,0.191993242672,0.531,0.45,2,2,1,372,1
1.04150556467,0.213876647806,0.165746175672,0.168087622192,0.514,0.45,0,0,1,373,1
0.163942714251,0.207566517255,0.275488069095,1.045321174,0.47,0.45,3,3,1,374,1
0.531747422935,1.16540328433,0.273260683492,0.176425698725,0.492,0.45,1,1,1,375,1
0.101180877868,0.103844318867,1.08398868887,0.713658365162,0.421,0.45,2,2,2,376,1
0.204129050393,0.153243297061,0.822641580127,1.05690996996,0.52,0.45,3,3,1,377,1
0.210829429575,0.171936879201,1.08585503137,0.122783256326,0.555,0.45,2,2,1,378,1
0.207143858916,1.0865315622,0.194361860373,0.24017794532,0.483,0.45,1,1,1,379,1
0.216442566523,0.162238648125,0.333620390827,1.05821698019,0.534,0.45,3,3,1,380,1
1.05170066187,0.181322025526,0.165695128356,0.247405208125,0.464,0.45,0,0,1,381,1
0.227664760286,0.186161128825,0.304525211988,0.360288526143,0.7,0.45,2,-1,0,383,1
1.04846262057,0.14849185121,0.280186462856,0.2804472889,0.606,0.45,0,0,1,383,1
0.286730308349,0.718515730707,0.326558230584,0.231068051153,0.7,0.45,1,-1,0,385,1
0.254517669179,1.11483515573,0.308597141861,0.212674338463,0.0550000000002,0.45,0,1,-1,385,1
0.20594058749,0.37460097214,0.343064840153,1.09309616308,0.459,0.45,3,3,1,386,1
0.232839771772,1.10245572303,0.232689301511,0.234052888129,0.46,0.45,1,1,1,387,1
0.242235338182,0.267362587901,1.03934753206,0.305984605509,0.509,0.45,2,2,1,388,1
0.252331774035,1.00683128426,0.607914943981,0.254917927181,0.68,0.45,1,1,1,389,1
0.233420375066,0.159179098105,0.780119860592,1.05229924704,0.557,0.45,3,3,1,390,1
0.234007465533,0.103061063378,1.00999737872,0.281925383626,0.561,0.45,2,2,1,391,1
0.243872969348,0.224166795491,0.40696936116,1.08194352893,0.489,0.45,3,3,1,392,1
1.10225763265,0.212230244467,0.168903127461,0.283296963696,0.462,0.45,0,0,1,393,1
0.232380883863,1.0535222053,0.231155824376,0.267464417408,0.42,0.45,1,1,2,394,1
1.04320217026,0.223166743906,0.272131561839,0.416215960051,0.503,0.45,0,0,1,395,1
0.155807349501,0.198183370768,1.04080290358,0.450327252699,0.477,0.45,2,2,1,396,1
1.01787041923,0.204040327473,0.169680223897,0.483533847951,0.529,0.45,0,0,1,397,1
0.248611995682,0.171505651563,0.794986508842,1.04262586284,0.511,0.45,3,3,1,398,1
0.204731661957,0.204871338978,1.06318535894,0.160156635092,0.493,0.45,2,2,1,399,1
0.197591128025,1.10249611902,0.197292371932,0.163072305951,0.444,0.45,1,1,2,400,1
0.268897472407,0.171506656031,0.184763911923,1.11849463319,0.522,0.45,3,3,1,401,1
0.202222219605,1.02613575272,0.178044577611,0.233313311697,0.577,0.45,1,1,1,402,1
0.194606985169,0.100023380832,1.11721535041,0.280798797222,0.508,0.45,2,2,1,403,1
1.02500893027,0.18569716486,0.201677828056,0.304678775967,0.484,0.45,0,0,1,404,1
0.247826618472,1.04324164035,0.241067632675,0.319568535466,0.513,0.45,1,1,1,405,1
1.11844606057,0.151685033646,0.281880882833,0.246179854571,0.514,0.45,0,0,1,406,1
0.208692111338,0.28256854823,1.02565921212,0.272606667763,0.54,0.45,2,2,1,407,1
0.234315559863,0.224104851593,0.171015194003,1.08590934131,0.399,0.45,3,3,2,408,1
1.05012729746,0.300650714495,0.1768682192,0.188900687547,0.548,0.45,0,0,1,409,1
0.235919734071,0.325167499686,1.05498005645,0.402480739425,0.573,0.45,2,2,1,410,1
0.28091625528,0.292168746512,0.185539611137,1.03158584222,0.526,0.45,3,3,1,411,1
0.178008758529,1.04579966392,0.159163738496,0.29659979824,0.527,0.45,1,1,1,412,1
0.188479009938,0.171443274942,1.12152826925,0.335573905632,0.458,0.45,2,2,1,413,1
0.296815605719,1.15216574244,0.197683473716,0.225698938333,0.454,0.45,1,1,1,414,1
0.213893318291,0.220558040214,0.455621930327,1.01371283953,0.6,0.45,3,3,1,415,1
0.204146016692,0.300797223998,1.01302614826,0.142512629249,0.578,0.45,2,2,1,416,1
1.11839674761,0.27578828414,0.103636456474,0.196033911743,0.508,0.45,0,0,1,417,1
0.511393500874,1.18277689244,0.196995104943,0.219443346655,0.537,0.45,1,1,1,418,1
1.10813979077,0.198782844609,0.174110657518,0.406389181808,0.566,0.45,0,0,1,419,1
0.142769686363,0.152455816437,0.237361453456,1.07680392839,0.446,0.45,3,3,2,420,1
1.08169197155,0.18894313328,0.222407810046,0.196661772144,0.446,0.45,0,0,2,421,1
0.213072904585,1.02563822411,0.338766821607,0.231174324398,0.509,0.45,1,1,1,422,1
0.18467344621,0.138173250919,1.1127722075,0.310567363928,0.421,0.45,2,2,2,423,1
0.251994415017,0.277646957228,0.53958855308,1.08695404355,0.46,0.45,3,3,1,424,1
0.262559713283,1.03030109722,0.249158438478,0.223693876499,0.471,0.45,1,1,1,425,1
0.475378217981,0.221040620007,0.249669384544,1.02247870111,0.459,0.45,3,3,1,426,1
0.217538861757,0.193323816472,0.558382859735,1.02503139132,0.47,0.45,2,3,-1,427,1
1.05983374023,0.196140433582,0.262100603013,0.208337049319,0.553,0.45,0,0,1,428,1
0.211799727705,0.174602477079,1.06181579371,0.255505340483,0.507,0.45,2,2,1,429,1
0.17483091873,1.18900402594,0.258626221063,0.261787295986,0.515,0.45,1,1,1,430,1
1.18208002017,0.169562709518,0.27345927729,0.352041875141,0.468,0.45,0,0,1,431,1
0.194606394957,0.253897815123,0.269464760829,0.879096386468,0.7,0.45,3,-1,0,433,1
1.05291491311,0.216305823424,0.133470929412,0.338620110056,0.573,0.45,0,0,1,433,1
0.272835879651,0.435289490901,1.11851890464,0.262507226316,0.614,0.45,2,2,1,434,2
0.37547096967,0.235662603955,0.460540431385,1.06116135274,0.463,0.45,3,3,1,435,2
1.03756936881,0.353466189196,0.572192278301,0.236838058889,0.395,0.45,1,0,-1,436,2
1.31141491155,0.398652022367,0.282546949322,0.217369692964,0.543,0.45,0,0,1,437,2
0.327449110477,0.402056604673,0.263998378038,1.04287923063,0.494,0.45,3,3,1,438,2
1.19350515539,0.314082700679,0.296679421591,0.159793557247,0.492,0.45,0,0,1,439,2
0.285536722175,1.0870925461,0.260724099417,0.189479750241,0.467,0.45,1,1,1,440,2
0.291358551704,0.184310102903,1.00607524789,0.177593167544,0.376,0.45,2,2,2,441,2
1.06716581568,0.284044224005,0.159130041311,0.714856539964,0.479,0.45,0,0,1,442,2
0.402763907578,0.305375499818,0.640054747311,0.252413361388,0.7,0.45,2,-1,0,444,2
0.314077970494,1.20707244814,0.23284990715,0.185765385997,0.557,0.45,1,1,1,444,2
0.388861212361,0.203035904146,0.324871221029,1.06727563847,0.512,0.45,3,3,1,445,2
0.319364413571,0.16413957973,1.04224418563,0.113881072428,0.421,0.45,2,2,2,446,2
1.09984829526,0.577203463265,0.161889445965,0.226057780772,0.48,0.45,0,0,1,447,2
0.328869345878,0.432569730484,0.385332642244,1.03511740795,0.553,0.45,3,3,1,448,2
0.243702276428,1.0347697441,0.264780849897,0.118678617711,0.468,0.45,1,1,1,449,2
0.337123990916,0.310698316662,0.345162435558,0.926136072135,0.7,0.45,3,-1,0,451,2
1.04451065099,0.209879387806,0.0918806832281,0.30877773671,0.531,0.45,0,0,1,451,2
0.201073856626,1.15199677233,0.208647778558,0.348763596572,0.63,0.45,1,1,1,452,2
0.261379794925,0.0794124093561,1.04021516051,0.245414234701,0.463,0.45,2,2,1,453,2
0.329106116649,0.183943630317,0.0485388410603,1.1050931415,0.348,0.45,3,3,2,454,2
0.107568608951,0.57487644762,1.14951736223,0.0301284793571,0.603,0.45,2,2,1,455,2
0.0536908238894,1.06311290183,0.616861608218,0.189095131712,0.557,0.45,1,1,1,456,2
1.1893189917,0.277729956596,0.233860835144,0.311064117284,0.609,0.45,0,0,1,457,2
0.0231667790451,0.168584715752,1.09643645421,0.361457995075,0.471,0.45,2,2,1,458,2
1.13048488819,0.225153954227,0.301979821857,0.352552412995,0.496,0.45,1,0,-1,459,2
0.264412825722,0.237406492203,0.251973509121,1.15185466078,0.578,0.45,3,3,1,460,2
1.10741044219,0.215311605539,0.2928880537,0.145584130095,0.577,0.45,0,0,1,461,2
0.282414859527,0.257278365722,0.336686440561,1.05710032995,0.575,0.45,3,3,1,462,2
0.331809932832,0.916153826602,0.294588354852,0.123294530194,0.7,0.45,1,-1,0,464,2
1.03462181253,0.341244998141,0.179247360316,0.187743786774,0.531,0.45,0,0,1,464,2
0.220079361164,0.327927671766,1.08060583651,0.183675937342,0.533,0.45,2,2,1,465,2
0.311359532707,0.327153300766,0.302293185253,1.01148512567,0.657,0.45,3,3,1,466,2
0.261689465474,0.278484950388,1.04878042246,0.0948581741127,0.581,0.45,2,2,1,467,2
1.16536851021,0.416049421481,0.145181950123,0.155348799277,0.531,0.45,0,0,1,468,2
0.324582508819,1.01535694884,0.263818908144,0.237284864544,0.484,0.45,1,1,1,469,2
0.313524357649,0.169434276793,1.0932335017,0.247360598338,0.435,0.45,2,2,2,470,2
1.01397360391,0.239418059248,0.174164764788,0.494865818634,0.432,0.45,0,0,2,471,2
0.263462935287,1.21732449005,0.27249453921,0.26609883333,0.469,0.45,1,1,1,472,2
0.332246009891,0.281707892971,0.405363132725,1.05072398964,0.575,0.45,3,3,1,473,2
1.08063142473,0.145766852685,0.125857870504,0.168341319382,0.51,0.45,0,0,1,474,2
0.299505442933,0.194275673777,0.362977993941,1.13387190192,0.612,0.45,3,3,1,475,2
0.294900647235,1.07241385378,0.254054095608,0.190463547131,0.548,0.45,1,1,1,476,2
1.12212080972,0.0886828320832,0.174935801225,0.297035469806,0.484,0.45,0,0,1,477,2
0.292828123175,0.211930897282,1.01895076833,0.256969116407,0.442,0.45,2,2,2,478,2
0.35384168793,1.08735376469,0.250978803572,0.226603608915,0.473,0.45,1,1,1,479,2
0.391049890715,0.118509157144,1.10929279516,0.251308400079,0.452,0.45,2,2,1,480,2
0.268817282361,0.145076277327,0.445752856117,1.13376657249,0.479,0.45,3,3,1,481,2
0.324414829906,0.145064975706,1.0393196021,0.582650765484,0.48,0.45,2,2,1,482,2
1.07066292721,0.164635835171,0.367889171684,0.11201761706,0.484,0.45,0,0,1,483,2
0.296013464255,1.1071275795,0.433550650326,0.179653141348,0.492,0.45,1,1,1,484,2
0.229944263097,0.116426004462,0.309978370119,1.06309067656,0.448,0.45,3,3,2,485,2
0.237533879799,1.01987799602,0.135879681417,0.259897955356,0.532,0.45,1,1,1,486,2
1.27962247012,0.138586711817,0.162237415326,0.259933225725,0.488,0.45,0,0,1,487,2
0.259222139934,0.201991169972,0.408181827819,1.13334115432,0.496,0.45,3,3,1,488,2
0.303502550515,0.209403259425,1.09640852041,0.125894207903,0.453,0.45,2,2,1,489,2
0.31928740384,0.617647941471,0.0689912867598,1.19413979915,0.557,0.45,3,3,1,490,2
1.12602153001,0.22920113872,0.212650475299,0.239523962667,0.513,0.45,0,0,1,491,2
0.212703474954,0.215059009664,1.08335736054,0.273687915791,0.446,0.45,2,2,2,492,2
0.228598870033,1.26925160503,0.298245163962,0.244269960973,0.43,0.45,1,1,2,493,2
0.277502767169,0.255873371118,1.03121139464,0.369196326497,0.45,0.45,2,2,1,494,2
0.252705553339,0.168600108282,0.0781233667114,1.13525343735,0.332,0.45,3,3,2,495,2
1.32948629175,0.19944905648,0.151435373667,0.283417021316,0.347,0.45,1,0,-1,496,2
1.3719959015,0.270766285846,0.244513171393,0.312082182468,0.694,0.45,0,0,1,497,2
0.0977585631718,0.152873882652,0.299572145084,1.17003167886,0.532,0.45,3,3,1,498,2
1.17180499563,0.208131483751,0.856364568023,0.191685398118,0.603,0.45,0,0,1,499,2
0.299861786783,1.24149740053,0.198539936131,0.19446436819,0.578,0.45,1,1,1,500,2
0.162208490974,0.0790248388368,1.02010721685,0.235989318769,0.436,0.45,2,2,2,501,2
1.03229221588,0.178140019707,0.145092325686,0.59878976299,0.47,0.45,0,0,1,502,2
0.293086906765,0.271303170514,1.09327635342,0.339922146593,0.451,0.45,2,2,1,503,2
0.457114438568,1.00512401289,0.523297921194,0.110491437394,0.556,0.45,1,1,1,504,2
0.203951889383,0.327952423938,0.569397972417,1.17451548091,0.492,0.45,3,3,1,505,2
0.301727851012,0.074616996785,1.12497749976,0.0480921696138,0.473,0.45,2,2,1,506,2
1.07670024751,0.338467732317,0.341269426445,0.222689271042,0.607,0.45,0,0,1,507,2
0.22761394046,0.292898454865,0.279407605227,1.11282026179,0.52,0.45,3,3,1,508,2
0.361757154542,1.07506958541,0.214112101032,0.171839494623,0.523,0.45,1,1,1,509,2
1.09499083258,0.263749208159,0.288513853531,0.212579958475,0.575,0.45,0,0,1,510,2
0.45995263306,1.03532533455,0.326684992222,0.270837679955,0.605,0.45,1,1,1,511,2
0.159807692975,0.240471447381,0.532988426232,1.13588645252,0.515,0.45,3,3,1,512,2
1.26137020692,0.236684776045,0.140129322722,0.163664181978,0.425,0.45,0,0,2,513,2
0.218108130356,0.270974016219,0.424981540999,0.25953858813,0.7,0.45,2,-1,0,515,2
0.253330839496,0.225408165063,0.724700665322,1.09619249361,0.586,0.45,3,3,1,515,2
0.270113741202,0.394445023444,1.07543528219,0.103508538669,0.546,0.45,2,2,1,516,2
0.161987103934,1.02182779051,0.119479528678,0.0893585497669,0.407,0.45,1,1,2,517,2
0.299838227964,0.162471570333,1.08491486022,0.185947006605,0.469,0.45,2,2,1,518,2
1.04935782443,0.481712655617,0.167520357054,0.111010805752,0.48,0.45,0,0,1,519,2
0.241884291995,1.03341778635,0.255909795152,0.240290625783,0.439,0.45,1,1,2,520,2
0.143221792457,0.123772757647,0.504751449089,1.2672171056,0.444,0.45,3,3,2,521,2
0.423050669945,1.21124548939,0.246686305491,0.123131359948,0.455,0.45,1,1,1,522,2
1.12383869711,0.119459286564,0.461036695475,0.237275462664,0.462,0.45,0,0,1,523,2
0.172166974181,0.141330866336,0.364853791492,1.07210571406,0.417,0.45,3,3,2,524,2
0.221153623555,0.182220643642,1.17639993976,0.272105174893,0.462,0.45,2,2,1,525,2
0.187261220385,0.225465475283,0.345336503682,1.1170412923,0.494,0.45,3,3,1,526,2
1.2136279325,0.202708920829,0.163271168299,0.128055407306,0.441,0.45,0,0,2,527,2
0.153664376394,0.125586731248,1.09296351651,0.228015642921,0.4,0.45,2,2,2,528,2
0.325283746775,1.11335114167,0.567582871353,0.210965290566,0.51,0.45,1,1,1,529,2
0.164702126268,0.169119275659,1.02890002973,0.331205074042,0.47,0.45,2,2,1,530,2
0.196860014909,0.122413390955,0.27042892508,1.27680663393,0.446,0.45,3,3,2,531,2
1.21940593504,0.18550599357,0.153415837173,0.192876868898,0.456,0.45,0,0,1,532,2
0.251945993008,1.14465440447,0.280915062934,0.200145655036,0.436,0.45,1,1,2,533,2
1.12258336918,0.128929537233,0.330649110751,0.231848176548,0.519,0.45,0,0,1,534,2
0.11048451269,0.193684345518,0.435139220967,1.2093216144,0.5,0.45,3,3,1,535,2
0.308529191199,0.432410116528,0.790948324328,0.155277860677,0.7,0.45,1,-1,0,537,2
0.227077742681,0.238794640677,0.217944232807,1.08451447041,0.517,0.45,3,3,1,537,2
0.117616327066,0.390098701192,1.18485474633,0.0744778982088,0.497,0.45,2,2,1,538,2
1.06819401576,0.27593956707,0.117117341987,0.153047766606,0.5,0.45,0,0,1,539,2
0.0938383611163,0.175472347116,1.01493713693,0.188180797315,0.405,0.45,2,2,2,540,2
0.202017377005,1.01388793027,0.371115569613,0.198224421203,0.45,0.45,1,1,1,541,2
0.142650845581,0.194860520349,1.05044202058,0.24276521156,0.403,0.45,2,2,2,542,2
0.265637827707,0.223938149075,0.200365287605,1.09781194109,0.455,0.45,3,3,1,543,2
1.39177292847,0.153896718536,0.1379510834,0.0795484708321,0.459,0.45,0,0,1,544,2
0.176450810788,1.21670743495,0.297638322332,0.276616551558,0.433,0.45,1,1,2,545,2
1.27908772228,0.189001428511,0.356990916276,0.265275686918,0.494,0.45,0,0,1,546,2
0.0981125670737,0.17371383529,0.532914195018,1.08000540373,0.5,0.45,3,3,1,547,2
0.291462237248,1.01840566972,0.307652039775,0.183117462564,0.505,0.45,1,1,1,548,2
0.149714608428,0.0838244213868,1.10953386892,0.296177502853,0.436,0.45,2,2,2,549,2
1.17093106114,0.10146978901,0.15683043128,0.305286312221,0.416,0.45,0,0,2,550,2
0.210823888487,0.184695998143,1.0420192022,0.258809812828,0.374,0.45,2,2,2,551,2
0.198411936373,1.20088651758,0.217310181301,0.555632685698,0.462,0.45,1,1,1,552,2
0.161622264924,0.106410708224,1.26262130034,0.260868836953,0.391,0.45,3,2,-1,553,2
0.288821111017,0.187181313061,0.357505778622,1.01439459438,0.52,0.45,2,3,-1,554,2
0.136077849693,0.0496509318606,1.15043624791,0.0165628888292,0.545,0.45,1,2,-1,555,2
1.17713828512,0.104944808201,0.0314332634725,0.0319090646819,0.665,0.45,0,0,1,556,2
0.166297311895,0.1544524329,0.129307618694,1.22990278275,0.619,0.45,3,3,1,557,2
1.24860083427,0.181680654994,0.228174443952,0.106660088964,0.572,0.45,0,0,1,558,2
0.125852701569,1.25749667922,0.204550373218,0.158109176165,0.474,0.45,1,1,1,559,2
0.141577826848,0.0474369868954,1.00387639021,0.160285366853,0.331,0.45,3,2,-1,560,2
0.212639486799,0.1089356224,1.12932510108,0.214708430852,0.513,0.45,2,2,1,561,2
0.184569005171,0.198025260492,0.0700632264592,1.15631201388,0.489,0.45,3,3,1,562,2
0.325771886158,1.07476953231,0.162382712953,0.137445733454,0.521,0.45,1,1,1,563,2
0.205251875948,0.126447399944,1.04858316986,0.147071958248,0.545,0.45,2,2,1,564,2
1.20830641461,0.390133972843,0.0765026013862,0.173726349832,0.543,0.45,0,0,1,565,2
0.150112826391,0.154972390363,1.04747888858,0.179026086796,0.52,0.45,2,2,1,566,2
0.206937601377,1.20827107924,0.559209538526,0.100720448404,0.495,0.45,1,1,1,567,2
0.255407378299,0.155588124958,0.159084446287,1.18224593437,0.477,0.45,3,3,1,568,2
1.10970375852,0.151574303142,0.139346426074,0.127270512452,0.434,0.45,0,0,2,569,2
0.160639765832,0.197330246786,0.367559845069,1.05642112184,0.49,0.45,3,3,1,570,2
0.208077896365,1.23615835444,0.30238027672,0.137277167779,0.471,0.45,1,1,1,571,2
1.12262621787,0.192852314774,0.146796670672,0.316172434877,0.503,0.45,0,0,1,572,2
0.155241599215,0.214181189391,1.03045829178,0.330699731828,0.476,0.45,2,2,1,573,2
0.138725914916,0.175962301673,0.486726416574,1.07176440209,0.453,0.45,3,3,1,574,2
0.261900507485,0.293179745276,1.12475604151,0.138419997729,0.505,0.45,2,2,1,575,2
1.13759863955,0.251387863865,0.126168598156,0.182538984591,0.483,0.45,0,0,1,576,2
0.204986234289,1.22979692065,0.449094734231,0.247276083152,0.491,0.45,1,1,1,577,2
0.218933205758,0.148749330375,1.00712421235,0.209951267482,0.371,0.45,2,2,2,578,2
1.08763124719,0.290262554141,0.153469052318,0.311232471254,0.551,0.45,0,0,1,579,2
0.256319787722,0.22287357533,0.223123786075,1.10682474188,0.438,0.45,3,3,2,580,2
0.421689830213,1.03717996485,0.20503115082,0.18881727442,0.403,0.45,1,1,2,581,2
0.301774173122,0.245557497415,0.132320540002,1.02431100763,0.567,0.45,3,3,1,582,2
1.08794391517,0.256665383592,0.194195629264,0.218495037614,0.582,0.45,0,0,1,583,2
0.288187290865,0.765360760415,0.325213229444,0.212165712963,0.7,0.45,1,-1,0,585,2
0.257825805509,1.00254814423,0.102419347559,0.200839470296,0.234,0.45,2,1,-1,585,2
0.228635580286,0.169361067104,0.3848141988,1.12011035858,0.46,0.45,3,3,1,586,2
0.145662570841,0.324190963574,1.14704248312,0.19623588825,0.49,0.45,2,2,1,587,2
0.185723256645,1.00178139339,0.171846847153,0.211131409329,0.425,0.45,1,1,2,588,2
1.06002864026,0.163802919135,0.0939025967481,0.211330086142,0.437,0.45,0,0,2,589,2
0.250868789162,0.328730223056,1.08789352676,0.330739053394,0.473,0.45,2,2,1,590,2
0.525443096568,1.16925579324,0.130509087054,0.413016476758,0.509,0.45,1,1,1,591,2
0.167206726679,0.126768343694,0.107101469557,1.01616591525,0.394,0.45,3,3,2,592,2
1.11943016938,0.241459880015,0.1356313558,0.170978204254,0.511,0.45,0,0,1,593,2
0.170193641003,1.16932351131,0.256445789469,0.22227183878,0.402,0.45,1,1,2,594,2
1.07219657886,0.119094298439,0.134898901192,0.417865479705,0.461,0.45,0,0,1,595,2
0.243436740461,0.208574082957,0.248414669219,1.1134153547,0.452,0.45,3,3,1,596,2
0.247883033353,0.225856288312,1.1076197363,0.236178252005,0.459,0.45,2,2,1,597,2
0.272202086036,0.216893616349,0.107087718682,1.0085166745,0.489,0.45,3,3,1,598,2
0.293258552251,1.13388315914,0.175311351772,0.222168813274,0.496,0.45,1,1,1,599,2
0.58443031075,0.186197785013,1.06433942079,0.216706098339,0.522,0.45,2,2,1,600,2
1.06984637569,0.149564508549,0.111306387168,0.215761739503,0.504,0.45,0,0,1,601,2
0.238718053318,0.29309359134,1.01909892968,0.251269550376,0.504,0.45,2,2,1,602,2
1.11582577633,0.658567657429,0.13055262975,0.241346655205,0.533,0.45,0,0,1,603,2
0.251221478542,0.156423125689,0.226856768603,1.1878407668,0.415,0.45,3,3,2,604,2
0.385609143316,1.0437380578,0.175146033839,0.0838589706802,0.622,0.45,1,1,1,605,2
0.295280083901,0.252277821492,0.498736632453,1.00591953001,0.586,0.45,3,3,1,606,2
1.27435947958,0.130231336445,0.113955609738,0.208888547227,0.445,0.45,0,0,2,607,2
0.231152832748,1.01467443302,0.203871373485,0.105738211016,0.456,0.45,1,1,1,608,2
0.234062344569,0.136799729328,1.00798447105,0.208950398109,0.344,0.45,2,2,2,609,2
0.275924147059,1.09889998927,0.227644455815,0.373135717004,0.434,0.45,1,1,2,610,2
1.08530597656,0.0963424775398,0.15313902235,0.224569369764,0.428,0.45,0,0,2,611,2
0.320431237724,0.102496345998,1.06355374342,0.313009894649,0.516,0.45,2,2,1,612,2
0.314960389408,0.21110088413,0.692558725606,1.07658853445,0.531,0.45,3,3,1,613,2
0.238067446949,0.211429309214,1.11731978709,0.0146915992998,0.446,0.45,2,2,2,614,2
0.193431804682,1.18694793624,0.142819430203,0.107639160717,0.436,0.45,1,1,2,615,2
1.16355483662,0.1955595286,0.19204968075,0.240442533364,0.426,0.45,0,0,2,616,2
0.254740646741,0.245961676599,0.385282904749,1.02019475971,0.509,0.45,3,3,1,617,2
1.03325853209,0.335302545426,0.184116959936,0.201705674303,0.561,0.45,1,0,-1,618,2
0.293251435711,0.239394818976,0.400199751479,1.01738719453,0.667,0.45,3,3,1,619,2
1.13452944593,0.255862349118,0.180194733471,0.150236877905,0.586,0.45,0,0,1,620,2
0.154204625889,1.03268535598,0.213369637089,0.198531570698,0.471,0.45,1,1,1,621,2
0.241928898111,0.149907574976,1.05885033669,0.231273583511,0.426,0.45,2,2,2,622,2
0.275749125875,1.14393902457,0.208267848706,0.169164821596,0.463,0.45,0,1,-1,623,2
0.338016183692,0.132026983514,1.02607818443,0.23105913985,0.595,0.45,2,2,1,624,2
0.336742277018,0.182291188619,0.122397725859,1.21269767596,0.523,0.45,3,3,1,625,2
0.343404839384,0.199694450481,1.01720747608,0.109969533154,0.547,0.45,2,2,1,626,2
1.14870119341,0.204537844044,0.114087958334,0.133582606827,0.505,0.45,0,0,1,627,2
0.262616364646,0.20321831071,0.288014032821,1.04454773095,0.48,0.45,3,3,1,628,2
0.495561429088,1.15664888912,0.182811074395,0.153064699611,0.507,0.45,1,1,1,629,2
0.336242940955,0.0860635366578,0.577948290812,1.07501960101,0.506,0.45,3,3,1,630,2
1.0616071588,0.158818165273,0.177737706408,0.242371807831,0.46,0.45,0,0,1,631,2
0.326169619151,1.06140034827,0.433177246765,0.222591744917,0.531,0.45,1,1,1,632,2
1.02842812545,0.153077437776,0.189034674613,0.299038514238,0.516,0.45,0,0,1,633,2
0.285851066748,0.247239624742,1.00329536692,0.262463363338,0.47,0.45,2,2,1,634,2
0.289351029322,0.168648045316,0.280818306832,1.10041962028,0.427,0.45,3,3,2,635,2
0.491985037182,0.427798482313,1.08471377964,0.207931845341,0.602,0.45,2,2,1,636,2
0.356738766848,1.12245252757,0.120530670673,0.240643521402,0.491,0.45,1,1,1,637,2
0.363695171591,0.119447419224,1.10518335454,0.237598587031,0.519,0.45,2,2,1,638,2
0.365064430717,0.135228193389,0.142740355728,1.24516379351,0.495,0.45,3,3,1,639,2
1.07755891783,0.152981797831,0.145941155258,0.157427882592,0.43,0.45,1,0,-1,640,2
1.04845063763,0.31894452631,0.204443924154,0.237115851074,0.7,0.45,0,-1,0,642,2
1.04845063763,0.31894452631,0.204443924154,0.237115851074,0.0130000000003,0.45,3,0,-1,642,2
1.19487591853,0.252895100133,0.222035353059,0.251647344362,0.492,0.45,0,0,1,643,2
0.250552872265,1.24404992848,0.204813225973,0.195695880292,0.474,0.45,1,1,1,644,2
0.178099191887,0.150706254804,0.180391753005,0.623772995583,0.7,0.45,3,-1,0,646,2
0.261455404624,0.123805490542,1.04050683325,0.208352737463,0.516,0.45,2,2,1,646,2
1.06893030244,0.169517296267,0.052797048851,0.263733397974,0.518,0.45,0,0,1,647,2
0.175237314788,0.154457020504,1.09971636331,0.680968948883,0.591,0.45,2,2,1,648,2
0.726290690757,1.10025636668,0.459041779155,0.244667943802,0.685,0.45,1,1,1,649,2
0.166263735469,0.150151821749,1.02250300241,0.236705060516,0.561,0.45,2,2,1,650,2
0.104973706691,1.2085857067,0.267392415182,0.10966352954,0.599,0.45,1,1,1,651,3
0.240652037483,0.152695642477,1.0946858569,0.279289474237,0.409,0.45,2,2,2,652,3
0.22819049128,0.221215335445,0.472208991995,1.03317964405,0.462,0.45,3,3,1,653,3
1.14938038283,0.254041482642,0.203846754302,0.23626002922,0.426,0.45,0,0,2,654,3
0.129914111938,0.348585054326,1.02331342172,0.22743812574,0.437,0.45,2,2,2,655,3
1.03013138437,0.290233485972,0.188808562213,0.1954350381,0.502,0.45,0,0,1,656,3
0.174557769221,0.248636342247,0.217273295146,1.01186977851,0.437,0.45,3,3,2,657,3
0.235409350339,0.206852487877,1.21094228471,0.232877733513,0.517,0.45,2,2,1,658,3
0.220262274977,1.03239413787,0.150333938094,0.199469555389,0.456,0.45,1,1,1,659,3
0.180679262419,0.109030962174,0.718878667992,1.09158406318,0.556,0.45,3,3,1,660,3
0.297233657271,1.07357640839,0.112129326628,0.189175965804,0.555,0.45,1,1,1,661,3
1.14609939023,0.190782474064,0.200933677245,0.252123898973,0.487,0.45,0,0,1,662,3
0.18535822567,1.03254234975,0.24597741311,0.251745347423,0.47,0.45,1,1,1,663,3
0.249512755962,0.230726775992,0.194326891914,1.01861666475,0.427,0.45,3,3,2,664,3
1.18489651012,0.238820082957,0.175863522337,0.291605310087,0.459,0.45,0,0,1,665,3
0.261543714362,0.31639882422,1.07932744274,0.309024593151,0.467,0.45,2,2,1,666,3
0.198090834025,0.290254393212,0.187187726645,1.09624988916,0.527,0.45,3,3,1,667,3
0.168754978443,0.193746964371,1.02110615102,0.2174839556,0.513,0.45,2,2,1,668,3
1.21919356446,0.341560558636,0.144929246062,0.261665940751,0.449,0.45,0,0,2,669,3
0.226050384975,0.317348766457,0.650810494397,1.04822877416,0.555,0.45,3,3,1,670,3
0.173911656552,1.11540474567,0.7348310638,0.106371719415,0.51,0.45,1,1,1,671,3
0.23579140912,0.138024654694,1.11762468853,0.250587963592,0.451,0.45,2,2,1,672,3
0.476039222894,1.02149969454,0.169384032747,0.251162381231,0.458,0.45,1,1,1,673,3
1.14161421441,0.212252463517,0.194943118023,0.253139128484,0.416,0.45,0,0,2,674,3
0.208084167901,1.08040998715,0.285186925975,0.32180741528,0.503,0.45,1,1,1,675,3
1.01851128802,0.17292905877,0.260733804508,0.288150581023,0.511,0.45,0,0,1,676,3
0.207761886311,0.217960049794,0.410423942821,1.11524750784,0.443,0.45,3,3,2,677,3
0.227889230303,0.305742089345,1.07258789402,0.189389433082,0.474,0.45,2,2,1,678,3
1.08657166237,0.598357183688,0.165057900082,0.231593711049,0.505,0.45,0,0,1,679,3
0.171821689469,0.40686889095,1.05614206151,0.302872267482,0.464,0.45,2,2,1,680,3
0.205211884719,0.143723864773,0.0612620833588,1.08330714885,0.428,0.45,3,3,2,681,3
1.18369224198,0.170920060249,0.139605179932,0.489873397495,0.485,0.45,0,0,1,682,3
0.263736751987,1.01023081609,0.233249978884,0.370165277316,0.493,0.45,1,1,1,683,3
0.115890150847,0.120904523875,1.08198695443,0.312407469511,0.427,0.45,2,2,2,684,3
0.302699372374,1.03635701408,0.389144999629,0.234376380048,0.669,0.45,1,1,1,685,3
0.115967015922,0.159264185854,0.417949744501,0.916432138877,0.7,0.45,3,-1,0,687,3
0.25227265027,1.01772600908,0.187163654274,0.42517333846,0.598,0.45,1,1,1,687,3
0.131494041171,0.315573381697,1.10366304432,0.230053284123,0.535,0.45,2,2,1,688,3
1.04702988768,0.269409623254,0.102348483618,0.289748495085,0.479,0.45,0,0,1,689,3
0.204389070617,0.211317630232,0.471883820229,1.01620981841,0.467,0.45,3,3,1,690,3
1.0758426222,0.202382329423,0.191825294199,0.243364106179,0.518,0.45,0,0,1,691,3
0.125543069745,0.275632102963,1.00828236567,0.346418471847,0.427,0.45,2,2,2,692,3
0.160240019024,0.365046202932,0.148932728909,1.2117966588,0.535,0.45,3,3,1,693,3
0.113972540691,0.239059694414,1.02427218067,0.250610482781,0.543,0.45,2,2,1,694,3
0.284870015429,1.08383603571,0.176703688479,0.28785705498,0.501,0.45,1,1,1,695,3
0.335349956283,0.186692739131,0.44507231875,1.04958609586,0.574,0.45,3,3,1,696,3
1.02191206137,0.194224919384,0.106899145877,0.236249801277,0.529,0.45,1,0,-1,697,3
1.16938951485,0.219867853167,0.158213658226,0.292982599213,0.61,0.45,0,0,1,698,3
0.215142253651,1.01252135979,0.204503699406,0.294785780669,0.539,0.45,1,1,1,699,3
0.145871015941,0.194058571943,1.06955405694,0.313654556531,0.425,0.45,2,2,2,700,3
0.24753098458,0.244564357713,0.228485101942,1.12410692424,0.491,0.45,3,3,1,701,3
1.04164369838,0.366264744163,0.198055604589,0.322911902195,0.507,0.45,0,0,1,702,3
0.0760468862103,0.165502885409,1.0389374339,0.267461140629,0.468,0.45,2,2,1,703,3
1.08487015612,0.11986403526,0.119195656145,0.56436882721,0.547,0.45,0,0,1,704,3
0.204122090011,0.13931512225,0.237297755384,1.18988715784,0.475,0.45,3,3,1,705,3
0.113059869428,1.13360349508,0.248374141174,0.150064529305,0.585,0.45,1,1,1,706,3
1.02921660956,0.0783748695338,0.197611920479,0.330778216456,0.491,0.45,0,0,1,707,3
1.03324030253,0.153900201155,0.274332122092,0.323786617446,0.515,0.45,1,0,-1,708,3
0.130664721779,0.0904419366889,0.709668158536,1.18918939517,0.612,0.45,3,3,1,709,3
0.198920154646,0.204295840154,1.01395746698,0.172442728784,0.595,0.45,2,2,1,710,3
0.123219199417,1.1359490043,0.101717957723,0.213929202864,0.497,0.45,1,1,1,711,3
0.231067970683,0.111823563315,0.309294595156,1.0478623438,0.503,0.45,3,3,1,712,3
0.0929242482099,0.105025798816,1.00380468108,0.128325969402,0.482,0.45,2,2,1,713,3
1.1306534484,0.417988237265,0.125669475233,0.317145395452,0.511,0.45,0,0,1,714,3
0.101566360001,0.143205875557,0.368299415085,1.04887487148,0.491,0.45,3,3,1,715,3
1.05245580068,0.139859389761,0.118676263777,0.274666080617,0.567,0.45,0,0,1,716,3
0.209958401213,0.220418909984,1.04737283897,0.349064751606,0.55,0.45,2,2,1,717,3
0.187627452956,0.118583355855,0.16439940624,1.00919671321,0.458,0.45,3,3,1,718,3
0.232767090772,1.01419621847,0.578276333023,0.0919824455547,0.558,0.45,1,1,1,719,3
0.189582384002,0.143096304372,1.0238719918,0.258019005558,0.512,0.45,2,2,1,720,3
0.270315990772,0.0791437465399,1.11444236289,0.158727267275,0.535,0.45,1,2,-1,721,3
0.109313644558,1.02035231808,0.577947752939,0.0501147661586,0.0290000000003,0.45,0,1,-1,722,3
0.144272775268,1.14966569941,0.0759502310464,0.192087626495,0.435,0.45,1,1,2,723,3
0.132499712565,0.153182675025,1.09721479126,0.255953880969,0.467,0.45,2,2,1,724,3
1.00874060914,0.13602741859,0.0878598863052,0.488972973255,0.592,0.45,0,0,1,725,3
0.173199772764,0.162865937457,0.141805768714,1.14409310275,0.483,0.45,3,3,1,726,3
1.10328527457,0.148936027416,0.137693644706,0.231178930764,0.519,0.45,0,0,1,727,3
0.140256978122,0.125849136653,0.632569190855,0.334131182242,0.7,0.45,2,-1,0,729,3
0.207177235888,0.0634581432619,0.337995553268,1.13147820928,0.535,0.45,3,3,1,729,3
0.231740315258,1.11340680705,0.381976275527,0.0698113826429,0.569,0.45,1,1,1,730,3
0.177503654134,0.0528647738374,0.732097607987,1.1025217616,0.595,0.45,3,3,1,731,3
0.11398166961,0.0548158063682,1.21357383573,0.159590417508,0.549,0.45,2,2,1,732,3
0.20557903104,0.607528448868,0.326678173999,0.277953852642,0.7,0.45,1,-1,0,734,3
1.24051908761,0.172630939595,0.259086722731,0.228451137242,0.505,0.45,0,0,1,734,3
0.705135579618,0.635859352209,0.304745349315,0.26356697425,0.7,0.45,1,-1,0,736,3
0.106930544132,0.158082361549,0.288978395604,1.10757642497,0.506,0.45,3,3,1,736,3
0.294530391696,1.02465937241,0.340399295871,0.356366853335,0.675,0.45,2,1,-1,737,3
0.129995421945,0.329101545634,0.218135879521,0.288931518151,0.7,0.45,0,-1,0,739,3
0.236834976953,0.762935641568,1.02598260157,0.302406917896,0.531,0.45,2,2,1,739,3
0.260314656982,0.266084901473,0.660607861767,1.17780429087,0.51,0.45,3,3,1,740,3
1.07017244094,0.273307395298,0.271457329872,0.338003911251,0.559,0.45,0,0,1,741,3
0.131569373715,0.243479686806,0.489269326071,1.01234575055,0.447,0.45,3,3,2,742,3
0.135880658064,1.05608751752,0.358713145014,0.227892611484,0.525,0.45,1,1,1,743,3
1.09134566209,0.166251392754,0.298018181284,0.448605385341,0.53,0.45,0,0,1,744,3
0.335940530999,1.0992723873,0.374759596446,0.320801788904,0.51,0.45,1,1,1,745,3
0.11953004217,0.119049572982,1.04085854809,0.3696797601,0.446,0.45,2,2,2,746,3
0.294659731887,1.02932766753,0.214415820493,0.42586796081,0.503,0.45,1,1,1,747,3
0.165341067022,0.114703179025,0.323345847856,1.02859539967,0.411,0.45,2,3,-1,748,3
1.03146074156,0.176210932043,0.447433836307,0.125518067301,0.59,0.45,0,0,1,749,3
0.186444786812,0.126427563159,0.264219779319,1.05143059249,0.516,0.45,3,3,1,750,3
1.03257627543,0.126797042038,0.189388812525,0.147351276948,0.609,0.45,0,0,1,751,3
0.165622033316,0.183576787361,1.0781449453,0.291807122251,0.546,0.45,2,2,1,752,3
0.106587016966,0.199533822391,0.100678465537,1.03203176524,0.479,0.45,3,3,1,753,3
0.306907135246,0.760091659583,0.820494779393,0.192081363972,0.7,0.45,1,-1,0,755,3
1.10758253954,0.164115309968,0.184111905118,0.296145128107,0.628,0.45,0,0,1,755,3
0.199152156588,1.07612857253,0.152959424904,0.18632532773,0.56,0.45,1,1,1,756,3
0.185733122696,0.244865164362,0.738717860833,1.1296532727,0.572,0.45,3,3,1,757,3
0.185261708901,1.00897302853,0.358465954116,0.168720034422,0.577,0.45,2,1,-1,758,3
0.103152940999,1.29278940012,0.218813495786,0.182716920164,0.606,0.45,1,1,1,759,3
0.220215496704,0.0584241771127,1.0087303193,0.302880114667,0.442,0.45,2,2,2,760,3
0.287661973761,0.228804309323,0.29620793042,1.25864981109,0.697,0.45,3,3,1,761,3
1.13270970239,0.179901251755,0.209421960232,0.207211240481,0.686,0.45,0,0,1,762,3
0.0658058416929,0.082596013559,1.16572499822,0.164817853855,0.543,0.45,2,2,1,763,3
1.19091362631,0.18910808234,0.20006162129,0.331007048466,0.522,0.45,0,0,1,764,3
0.163143609074,0.124871423213,0.598121770685,1.08262924031,0.482,0.45,3,3,1,765,3
0.454402971282,1.08887168408,0.180839102307,0.152184548346,0.539,0.45,1,1,1,766,3
0.141835203888,0.183597025113,0.281514430279,1.09701429053,0.466,0.45,3,3,1,767,3
0.121252371355,0.689419940682,1.0259382208,0.248570477208,0.546,0.45,2,2,1,768,3
0.214526605956,1.10357761966,0.193642461585,0.246380602202,0.648,0.45,1,1,1,769,3
1.16460901636,0.257605666325,0.279928117361,0.396103606405,0.515,0.45,0,0,1,770,3
0.151769819101,1.09078878234,0.466540494675,0.220259892276,0.542,0.45,1,1,1,771,3
1.07392496605,0.247438629387,0.315708026015,0.290782500465,0.619,0.45,0,0,1,772,3
0.161769198906,0.284248308453,1.04506598307,0.300467424876,0.505,0.45,2,2,1,773,3
0.196681418832,0.21130853042,0.206462927769,1.02215932148,0.34,0.45,3,3,2,774,3
1.02395113982,0.267607080594,0.209906687728,0.200567713527,0.599,0.45,0,0,1,775,3
0.209316922164,0.279898252099,0.434579632464,1.0184634227,0.489,0.45,3,3,1,776,3
0.192579189584,0.242200753067,1.00623630828,0.185395514766,0.47,0.45,2,2,1,777,3
1.00919601357,0.235831392281,0.159019459096,0.270869823482,0.498,0.45,0,0,1,778,3
0.178264979728,1.03011480711,0.334056327239,0.225260205164,0.48,0.45,1,1,1,779,3
0.171134003249,0.252311785744,1.06812255267,0.352336213954,0.438,0.45,2,2,2,780,3
0.0983407389005,1.10057682397,0.195746571114,0.187022157897,0.497,0.45,1,1,1,781,3
0.161517401705,0.202872783368,0.449521894588,1.08626181631,0.431,0.45,3,3,2,782,3
0.221241501898,1.04395436267,0.191956667388,0.148104881712,0.52,0.45,1,1,1,783,3
0.461034572224,0.201789468392,0.194724147219,1.0390735283,0.514,0.45,3,3,1,784,3
0.105796163072,0.179945244306,0.240251779522,0.294290835667,0.7,0.45,0,-1,0,786,3
0.248014000053,0.223475223592,1.00766731596,0.258306110982,0.54,0.45,2,2,1,786,3
1.03699494066,0.158621791646,0.145228304572,0.295318143028,0.508,0.45,0,0,1,787,3
0.167483317262,0.197888184894,0.361710633554,1.14156146735,0.443,0.45,3,3,2,788,3
0.230067681526,0.197710527656,1.04454789054,0.0939934696555,0.486,0.45,2,2,1,789,3
0.232551515974,0.247683721205,0.194953111131,1.18511323028,0.497,0.45,3,3,1,790,3
0.198919180452,1.02582269983,0.2368258442,0.162151630523,0.578,0.45,1,1,1,791,3
0.167760682406,0.188121999255,1.1177452082,0.280893948303,0.489,0.45,2,2,1,792,3
1.09141109859,0.168713212298,0.189526306353,0.277416787135,0.451,0.45,1,0,-1,793,3
0.155807071604,0.703016448877,0.259256001011,0.276432727378,0.7,0.45,0,-1,0,795,3
0.241772201565,1.08489334146,0.249223506298,0.258919853716,0.502,0.45,1,1,1,795,3
0.192676915523,0.2052674346,0.58368418437,1.20365694396,0.485,0.45,3,3,1,796,3
1.02276274604,0.243937379292,0.187193639701,0.239386811811,0.462,0.45,0,0,1,797,3
0.172104318618,0.241330723145,1.10152317728,0.283236836946,0.416,0.45,2,2,2,798,3
0.223344259781,0.189838767022,1.01621628178,0.449842827723,0.43,0.45,3,2,-1,799,3
0.122707637677,0.172827992815,1.12707382629,0.216720884942,0.588,0.45,2,2,1,800,3
1.04592122336,0.736822509471,0.12012449611,0.178372204805,0.591,0.45,0,0,1,801,3
0.336686159135,0.540328494461,0.757648644123,0.170814135978,0.7,0.45,1,-1,0,803,3
0.171856970806,0.292810316218,1.07280377084,0.242043039336,0.672,0.45,2,2,1,803,3
0.151203747919,1.06588488818,0.110458737355,0.225157383802,0.601,0.45,1,1,1,804,3
1.18333198488,0.172640088372,0.228988336476,0.3634650294,0.557,0.45,0,0,1,805,3
0.169550685878,0.213548074497,0.156365858051,1.14869758013,0.487,0.45,3,3,1,806,3
0.107561223574,1.09296942258,0.129666157664,0.160630118064,0.514,0.45,1,1,1,807,3
1.01512578942,0.136197951961,0.206391687013,0.304301501921,0.49,0.45,0,0,1,808,3
0.243506667352,0.292297790725,0.337389140725,0.321098556422,0.7,0.45,2,-1,0,810,3
0.155812553192,0.133161249925,0.224823348532,1.2672159689,0.498,0.45,3,3,1,810,3
0.835541380452,0.40964451783,0.109479946807,0.178891835602,0.7,0.45,0,-1,0,812,3
0.152108652135,0.160984278816,1.01495312875,0.362000420184,0.51,0.45,3,2,-1,812,3
0.0991314306796,0.0777803437034,1.09050167249,0.241387130229,0.68,0.45,2,2,1,813,3
0.807815867062,0.266786286645,0.220294692086,0.327411134693,0.7,0.45,0,-1,0,815,3
1.15983922453,0.264045595031,0.216193060919,0.329642982549,0.0300000000003,0.45,1,0,-1,815,3
0.13052902259,0.296632811201,1.17317272752,0.352229219445,0.49,0.45,2,2,1,816,3
0.249090435612,1.09650118126,0.179765229855,0.164053029371,0.494,0.45,1,1,1,817,3
0.222402353764,0.197064262952,0.826421009039,1.26340156313,0.473,0.45,3,3,1,818,3
0.107534827035,1.17062841454,0.281226857836,0.158286742004,0.506,0.45,1,1,1,819,3
0.467337132274,0.121199044543,1.24552479008,0.267316029865,0.535,0.45,2,2,1,820,3
0.216441448536,0.374768522908,1.02698998574,0.551355731756,0.66,0.45,3,2,-1,821,3
0.210725270699,0.359688786298,0.962241933289,1.15346665652,0.00900000000034,0.45,0,3,-1,822,3
0.198151156586,0.266210109283,0.263657876806,1.25580810185,0.596,0.45,3,3,1,823,3
0.25145439694,0.297159392858,1.04683330403,0.153776501165,0.666,0.45,2,2,1,824,3
1.2072993427,0.251644576705,0.205942575074,0.285607656866,0.548,0.45,0,0,1,825,3
0.192719039075,1.02407174326,0.31580767921,0.280275866977,0.412,0.45,1,1,2,826,3
0.125041725793,0.27632445652,0.405521151311,1.12865660268,0.495,0.45,3,3,1,827,3
0.185055416018,1.03149788731,0.164863604017,0.267997639872,0.501,0.45,1,1,1,828,3
1.0906406194,0.228251685862,0.220287078268,0.305529175216,0.574,0.45,0,0,1,829,3
0.150985643066,0.280060372678,0.635752606159,0.349664621595,0.7,0.45,2,-1,0,831,3
0.377430804464,1.1561714678,0.22207756178,0.169150511444,0.539,0.45,1,1,1,831,3
0.104923351839,0.120575137183,0.262268790758,1.14082476723,0.49,0.45,3,3,1,832,3
0.231748882828,0.354723025529,1.08616064522,0.211804217589,0.49,0.45,2,2,1,833,3
0.121077591917,1.01871051889,0.171745509024,0.325400378277,0.422,0.45,0,1,-1,834,3
0.142140788892,0.113749266783,1.15751874619,0.396266494869,0.473,0.45,2,2,1,835,3
0.166764641269,0.161053203837,0.129313036532,1.25844803453,0.465,0.45,3,3,1,836,3
1.07029305899,0.331547475626,0.173527764608,0.219823240469,0.539,0.45,0,0,1,837,3
0.19433653964,0.288799614763,0.657283185795,1.07642116916,0.54,0.45,3,3,1,838,3
0.200596846088,1.17765724568,0.160713326647,0.137951386375,0.501,0.45,1,1,1,839,3
1.05790619329,0.159591438519,0.265363336713,0.430507413541,0.674,0.45,0,0,1,840,3
0.168609492613,1.0298378465,0.318879273115,0.249088184572,0.628,0.45,1,1,1,841,3
0.0946348704766,0.205496918403,1.05753897249,0.3653703279,0.506,0.45,2,2,1,842,3
0.421391880857,1.06638519112,0.21908767893,0.189814297549,0.613,0.45,1,1,1,843,3
0.192541857074,0.246641133832,1.02794041949,0.597240208326,0.522,0.45,2,2,1,844,3
0.0250805124347,0.100021055353,0.160878708439,1.19843997194,0.381,0.45,3,3,2,845,3
1.05059246427,0.288545502632,0.160840770124,0.150942911322,0.506,0.45,0,0,1,846,3
0.164111354024,0.328096758979,0.197744712663,1.11709900777,0.491,0.45,3,3,1,847,3
0.091982284231,0.259351062818,1.0364735256,0.17072372922,0.496,0.45,2,2,1,848,3
1.06217903751,0.276953433647,0.125048027182,0.317509045937,0.502,0.45,0,0,1,849,3
0.15692500627,1.15940515599,0.201525649,0.323610240554,0.457,0.45,1,1,1,850,3
0.114269674702,0.143284561722,0.410217592344,1.16121129222,0.483,0.45,3,3,1,851,3
0.24481570401,1.11301316537,0.192511957827,0.278710309058,0.488,0.45,1,1,1,852,3
1.03279466144,0.18825668579,0.282194282303,0.317163459515,0.498,0.45,0,0,1,853,3
0.116471662331,0.290896993865,1.03027972668,0.341113454783,0.48,0.45,2,2,1,854,3
0.367503730625,1.08728289777,0.0692191835506,0.611678867785,0.56,0.45,1,1,1,855,3
0.110848319739,0.195303257037,1.00597576773,0.23686890762,0.518,0.45,2,2,1,856,3
0.0847183356854,0.11875679068,0.109721281084,1.08242436033,0.374,0.45,3,3,2,857,3
1.11340863923,0.202068435766,0.125573346776,0.284957600056,0.486,0.45,0,0,1,858,3
0.111785738142,0.199532612781,0.355927221089,0.738299179653,0.7,0.45,3,-1,0,860,3
0.116169853636,0.176876783517,0.247318077732,1.00457207214,0.0880000000004,0.45,2,3,-1,860,3
0.322929323455,0.20392009828,0.204824777343,0.253788277606,0.7,0.45,0,-1,0,862,3
0.25358927943,0.203106781837,1.0659805371,0.252080308033,0.59,0.45,2,2,1,862,3
1.33339704195,0.202294552462,0.17805884159,0.417834216272,0.56,0.45,1,0,-1,863,3
0.0872061916588,0.345575448363,0.241327364012,1.29062760874,0.642,0.45,3,3,1,864,3
0.265131302382,1.10307025761,0.396757702911,0.292381480953,0.646,0.45,1,1,1,865,3
1.31750494826,0.219940231941,0.235879091698,0.381870776667,0.575,0.45,0,0,1,866,3
0.140387075638,1.13264008306,0.303637563877,0.209135409821,0.509,0.45,1,1,1,867,3
0.279898333753,1.01985827525,0.404821595896,0.295574169693,0.648,0.45,1,1,1,868,4
0.264523380092,0.352814648076,1.06616281049,0.303791455804,0.487,0.45,2,2,1,869,4
1.0868975979,0.344803505075,0.20083144939,0.444575872066,0.531,0.45,0,0,1,870,4
0.374050713618,0.406405814604,0.273380276791,1.05273216708,0.535,0.45,3,3,1,871,4
0.301324809028,0.405404279054,1.0194788126,0.278058611196,0.493,0.45,2,2,1,872,4
0.271395610526,0.304986032462,0.436520687243,1.10911719685,0.546,0.45,3,3,1,873,4
1.01001051715,0.31536655449,0.239484847284,0.323615378928,0.52,0.45,0,0,1,874,4
0.296334868542,0.340755274626,1.09134955004,0.342168537913,0.451,0.45,2,2,1,875,4
0.372064586874,1.0389572781,0.269502784184,0.379316316682,0.482,0.45,1,1,1,876,4
1.04329196848,0.343378283571,0.262542263699,0.300410758467,0.44,0.45,0,0,2,877,4
0.473362093641,1.04108240324,0.300909686494,0.292533078775,0.522,0.45,1,1,1,878,4
0.313402093985,0.274236817721,0.542119763803,1.12264215515,0.536,0.45,3,3,1,879,4
0.361287246853,1.01416408739,0.238584234486,0.285704515512,0.502,0.45,1,1,1,880,4
0.246022973063,0.370865013683,1.07946332117,0.286966684398,0.431,0.45,2,2,2,881,4
1.07614024744,0.420121989614,0.265184887971,0.27480919221,0.542,0.45,0,0,1,882,4
0.288308007694,0.439660342555,0.577040993915,1.10299531937,0.534,0.45,3,3,1,883,4
0.247043729586,0.365833355277,1.09306632104,0.28566820705,0.493,0.45,2,2,1,884,4
0.26869802858,0.352236086386,0.400859619569,1.07978801574,0.497,0.45,3,3,1,885,4
1.04510344136,0.284018573848,0.17132419588,0.287082900862,0.55,0.45,0,0,1,886,4
0.30481287807,0.363028635206,1.23696632906,0.306916767976,0.415,0.45,2,2,2,887,4
0.314568486343,0.42642073486,1.0945909719,0.238551040484,0.458,0.45,1,2,-1,888,4
1.06680589924,0.238942284653,0.140669301618,0.262000655368,0.628,0.45,0,0,1,889,4
0.315127238444,1.01911630785,0.202380374432,0.270812507826,0.546,0.45,1,1,1,890,4
0.217646344815,0.245753276111,0.503453692717,1.11557601738,0.554,0.45,3,3,1,891,4
0.273150287804,1.00336316288,0.133948622577,0.221951039868,0.459,0.45,1,1,1,892,4
0.220116580069,0.279341829565,1.03806149219,0.207858260384,0.422,0.45,3,2,-1,893,4
0.210196988925,0.184271836388,1.02909591228,0.144274029486,0.697,0.45,2,2,1,894,4
0.768813525597,0.276116206518,0.409298122782,0.160524004408,0.7,0.45,0,-1,0,896,4
1.03942799033,0.273744547466,0.35598652399,0.162987142832,0.0550000000004,0.45,2,0,-1,896,4
0.248098031779,0.298604440516,0.544213037054,1.00763920166,0.525,0.45,3,3,1,897,4
1.04102561709,0.22356149338,0.218098466496,0.220723446031,0.576,0.45,0,0,1,898,4
0.257034901521,0.262397865437,0.196477956123,1.06741326881,0.525,0.45,3,3,1,899,4
0.599115137428,0.970013201917,0.216657783764,0.211199136399,0.7,0.45,1,-1,0,901,4
0.976278743206,0.222513042121,0.159408439598,0.254416576856,0.7,0.45,0,-1,0,902,4
0.213753542496,1.13402265286,0.267944982886,0.25040083776,0.589,0.45,1,1,1,902,4
0.265573449152,0.243455227491,1.00032674276,0.280394291499,0.518,0.45,2,2,1,903,4
0.271174346343,1.01298080187,0.203234148506,0.492817185425,0.565,0.45,1,1,1,904,4
0.25660861806,0.295197293565,0.541962307629,1.10889449299,0.517,0.45,3,3,1,905,4
1.00360152518,0.26543889234,0.167215912492,0.233751087821,0.516,0.45,0,0,1,906,4
0.198900204359,0.329789206301,1.04971897742,0.248083968611,0.49,0.45,2,2,1,907,4
0.255250044899,0.236440621339,0.182432830669,1.12205567437,0.396,0.45,3,3,2,908,4
0.320975876176,0.443540457628,0.182129699257,1.31050611012,0.526,0.45,2,3,-1,909,4
0.0945677882995,0.198152649337,0.147163267004,0.0462594510977,0.7,0.45,0,-1,0,911,4
0.252207862854,1.02453422965,0.342378638564,0.30087072732,0.634,0.45,1,1,1,911,4
0.230466244402,0.258918195703,1.03729340854,0.31019862416,0.568,0.45,2,2,1,912,4
0.879108714382,0.492448843116,0.360435347282,0.315227673266,0.7,0.45,1,-1,0,914,4
0.656749967367,0.570289564545,0.299369156921,0.277856541325,0.7,0.45,0,-1,0,915,4
1.04211839285,0.560229917748,0.280166478537,0.285486397554,0.0550000000004,0.45,3,0,-1,915,4
0.196195580083,1.1004787544,0.588732115925,0.196119849964,0.588,0.45,1,1,1,916,4
0.235983778408,0.168223135106,1.08040913453,0.281944961451,0.545,0.45,2,2,1,917,4
1.06821568377,0.290418152196,0.268576190681,0.245631983438,0.545,0.45,0,0,1,918,4
0.196560053877,0.251240004647,0.560178278384,1.03621285318,0.575,0.45,3,3,1,919,4
0.161176991268,0.266578390719,1.02082398684,0.237696287816,0.526,0.45,2,2,1,920,4
0.210376548001,0.297407293971,0.0931917170282,1.14411681028,0.671,0.45,3,3,1,921,4
1.08202478032,0.214706165434,0.140625402946,0.276909989658,0.529,0.45,0,0,1,922,4
0.175217850503,0.204911399384,1.01804936746,0.233602175137,0.485,0.45,2,2,1,923,4
0.160071553856,1.04781632067,0.176707737785,0.188763198963,0.413,0.45,1,1,2,924,4
1.04911819152,0.219436203023,0.194958609032,0.234494769074,0.493,0.45,0,0,1,925,4
0.336567196909,1.07453597226,0.225278065044,0.215468007464,0.625,0.45,1,1,1,926,4
0.167709727873,0.143580369012,0.25573955812,1.13025143179,0.51,0.45,3,3,1,927,4
0.167329927811,1.00880362799,0.10206988322,0.0999881834372,0.536,0.45,1,1,1,928,4
1.10865076773,0.188666068802,0.0998675870912,0.345461267399,0.521,0.45,0,0,1,929,4
0.210255332652,0.255396322957,0.809942396526,0.220426409492,0.7,0.45,2,-1,0,931,4
0.106972399283,0.16316225956,0.0860242865751,1.18887212675,0.483,0.45,3,3,1,931,4
0.174399751205,0.201191542681,1.02740607722,0.21270354073,0.536,0.45,2,2,1,932,4
0.986775334271,0.492245494496,0.136160891629,0.213621150695,0.7,0.45,0,-1,0,934,4
0.184634132834,0.131991725892,0.496358742391,1.14965220826,0.57,0.45,3,3,1,934,4
0.289457486337,1.16682035914,0.54570226246,0.173563987188,0.672,0.45,1,1,1,935,4
0.127482620441,0.176569153701,1.02691144409,0.234155749913,0.601,0.45,2,2,1,936,4
0.268410417689,1.12007146282,0.122479189169,0.213977146505,0.56,0.45,1,1,1,937,4
0.180497249054,0.23315728217,0.951106342704,0.389626768674,0.7,0.45,3,-1,0,939,4
0.176685306363,0.227757216615,1.05176064827,0.329833994397,0.0390000000004,0.45,0,2,-1,939,4
0.325807126657,0.970169139081,0.198756326256,0.209090239722,0.7,0.45,1,-1,0,941,4
0.268121973145,0.170315838807,0.162731199716,0.323021500871,0.7,0.45,0,-1,0,942,4
0.280817884775,0.203929707866,1.16619429025,0.266127895826,0.447,0.45,2,2,2,942,4
0.132472448841,0.135858058571,0.0844344498659,1.05900497059,0.439,0.45,3,3,2,943,4
0.20157607172,0.172776060495,1.07087679312,0.176154539402,0.576,0.45,2,2,1,944,4
1.00316547405,0.074385955525,0.109729560841,0.254688166907,0.529,0.45,0,0,1,945,4
0.190546202857,0.20431251343,0.257845465343,1.24395607029,0.475,0.45,3,3,1,946,4
1.09339562304,0.26636446649,0.242633742109,0.244821188577,0.509,0.45,0,0,1,947,4
0.13773702451,1.11389545154,0.198121711305,0.239116303524,0.518,0.45,1,1,1,948,4
0.139176373735,0.134519282575,0.116671711287,1.02548401941,0.405,0.45,3,3,2,949,4
0.414793536922,1.02917652635,0.128053579151,0.150711870384,0.474,0.45,1,1,1,950,4
0.201403305699,0.253514238621,0.670286348204,0.2302073194,0.7,0.45,2,-1,0,952,4
0.194949298951,1.07122922765,0.130385830844,0.210396022141,0.547,0.45,1,1,1,952,4
0.123084570323,0.141323655068,0.112190720326,1.06169933753,0.461,0.45,3,3,1,953,4
0.169878693841,0.178714827228,1.00200608782,0.234264249299,0.56,0.45,2,2,1,954,4
1.00934255158,0.284093989539,0.124945271806,0.366026204276,0.54,0.45,0,0,1,955,4
0.150680192271,0.179978260643,0.213348322348,1.00114914402,0.421,0.45,3,3,2,956,4
1.13145067044,0.21787041708,0.242006017266,0.281203085534,0.556,0.45,0,0,1,957,4
0.16651672919,0.208751974052,1.09960678777,0.345043645352,0.491,0.45,2,2,1,958,4
0.152292200586,1.0233837244,0.543957256086,0.100849765834,0.511,0.45,1,1,1,959,4
0.230249880759,0.190888807303,1.35968633457,0.159534227426,0.525,0.45,2,2,1,960,4
0.12595816396,0.117883856807,0.101726937953,1.0546118408,0.439,0.45,3,3,2,961,4
0.512524628871,1.00865279963,0.135392394773,0.258443292156,0.531,0.45,1,1,1,962,4
1.13433288915,0.18012050745,0.102289008834,0.367826386525,0.517,0.45,0,0,1,963,4
0.231765094642,1.00476291831,0.896711603439,0.176708335065,0.562,0.45,1,1,1,964,4
1.19109747079,0.218745585951,0.309033360058,0.292430927328,0.621,0.45,0,0,1,965,4
0.132907123704,0.182864475837,0.254200572875,1.26567520792,0.517,0.45,3,3,1,966,4
0.164346200935,0.24780621781,1.07465918043,0.163569341665,0.556,0.45,2,2,1,967,4
1.10747776384,0.253973942907,0.119627083696,0.338250513427,0.613,0.45,0,0,1,968,4
0.121213435519,0.209697720225,1.11421798881,0.345252266104,0.527,0.45,2,2,1,969,4
0.13461662769,0.179946373846,0.206866805654,1.20371268172,0.513,0.45,3,3,1,970,4
1.13331508717,0.163750958001,0.0960269411849,0.233301820678,0.521,0.45,0,0,1,971,4
0.22660386037,1.03846255017,0.689085723623,0.15331774213,0.527,0.45,1,1,1,972,4
0.134767234601,0.243242483667,1.13662032042,0.248405915155,0.469,0.45,2,2,1,973,4
0.180740579675,1.05169621867,0.180346225089,0.215858969772,0.503,0.45,1,1,1,974,4
0.0904686759492,0.104189400409,1.00116400164,0.411398525811,0.44,0.45,3,2,-1,975,4
0.496219149517,0.915247231866,0.122384305737,0.194731168632,0.7,0.45,1,-1,0,977,4
0.0933543213666,0.318084044322,1.11206343042,0.17096474981,0.517,0.45,2,2,1,977,4
1.05892125078,0.433783547907,0.0992046505194,0.194542775042,0.626,0.45,0,0,1,978,4
0.120401702752,0.207660888008,0.160482952055,1.13638479209,0.456,0.45,3,3,1,979,4
1.07567648025,0.737193856249,0.153879148163,0.172653808015,0.638,0.45,0,0,1,980,4
0.117703496306,0.207460568323,1.07682894878,0.291560448307,0.57,0.45,2,2,1,981,4
0.0947101241402,0.202040177451,0.123042851019,1.28652986083,0.556,0.45,3,3,1,982,4
0.137330245866,0.170193209483,1.18374966633,0.149211690088,0.509,0.45,2,2,1,983,4
0.0964708399619,1.12406629098,0.179659194508,0.188771659486,0.52,0.45,1,1,1,984,4
0.129254600262,0.209052878473,0.433554294685,1.21242374626,0.504,0.45,3,3,1,985,4
0.286207494186,1.18018553433,0.275161109852,0.283866687375,0.533,0.45,1,1,1,986,4
1.11734431309,0.178369961301,0.10689993745,0.48211174683,0.536,0.45,0,0,1,987,4
0.81530317642,1.04911068201,0.271062948175,0.339604136449,0.61,0.45,1,1,1,988,4
0.107565411848,0.212572962082,1.15613420481,0.335977733279,0.494,0.45,2,2,1,989,4
0.0834703589759,0.148431610865,0.0951181063675,1.00588592064,0.423,0.45,3,3,2,990,4
1.06556214747,0.230201085397,0.135884651023,0.266810635967,0.575,0.45,0,0,1,991,4
0.215978263399,0.473004008293,1.00393484357,0.33418571122,0.579,0.45,2,2,1,992,4
1.02813914045,0.664226917934,0.0858065716694,0.23444289646,0.564,0.45,0,0,1,993,4
0.106309259676,0.207683471249,0.502449069998,1.09238221194,0.521,0.45,3,3,1,994,4
0.264450683358,1.00628649934,0.388980217634,0.173142827718,0.603,0.45,1,1,1,995,4
0.123881088855,0.119097690147,0.327343946277,1.39901747891,0.484,0.45,3,3,1,996,4
0.205325201497,0.169106462266,1.16290856851,0.123358138656,0.51,0.45,2,2,1,997,4
0.297228290427,1.04131880274,0.130427312654,0.205681539881,0.464,0.45,1,1,1,998,4
1.02448530332,0.329582056965,0.169237744831,0.311849200231,0.473,0.45,0,0,1,999,4
0.200890144591,1.25265064998,0.625704226678,0.209187719888,0.575,0.45,1,1,1,1000,4
1.01226024465,0.221765463247,0.226690893283,0.295634044977,0.531,0.45,0,0,1,1001,4
0.154116650905,0.212772871882,1.05354097651,0.36760940577,0.485,0.45,2,2,1,1002,4
0.0953843053633,0.120126734315,0.558165377384,1.33660506368,0.412,0.45,3,3,2,1003,4
0.214456838339,0.183031287144,1.13557948483,0.208710409065,0.468,0.45,2,2,1,1004,4
0.440036246829,0.219536353768,0.201806062939,0.345475094029,0.7,0.45,0,-1,0,1006,4
0.205039796125,0.145290388241,1.09538545335,0.388646409199,0.559,0.45,3,2,-1,1006,4
1.03836215419,0.144166804827,0.160730053413,0.397834654209,0.691,0.45,0,0,1,1007,4
0.120869045338,1.1384302767,0.0829965295252,0.229997051927,0.544,0.45,1,1,1,1008,4
0.0986251533227,0.175190615805,0.2964058882,1.15387254835,0.45,0.45,3,3,1,1009,4
0.208965155836,1.21017256547,0.187441014724,0.230974122115,0.435,0.45,1,1,2,1010,4
0.111845592417,0.228043835132,1.15599905828,0.601681354749,0.437,0.45,2,2,2,1011,4
0.780562246921,1.09315168198,0.0685352567162,0.445888160508,0.522,0.45,1,1,1,1012,4
1.06720397468,0.233222555074,0.138256384652,0.183461844361,0.458,0.45,0,0,1,1013,4
0.140156389716,0.204854666849,1.02882654129,0.286768417715,0.391,0.45,2,2,2,1014,4
0.153838853092,0.185250642211,0.23679469129,1.11962057532,0.375,0.45,3,3,2,1015,4
1.295921404,0.269600496907,0.202980647163,0.24065735385,0.433,0.45,0,0,2,1016,4
0.194058161319,0.281002466756,0.924113224189,1.17640824107,0.494,0.45,3,3,1,1017,4
0.196412560011,0.313713496835,1.08331454316,0.16625158649,0.456,0.45,2,2,1,1018,4
1.02874934024,0.297588729713,0.112438247961,0.283842073137,0.49,0.45,0,0,1,1019,4
0.209276190618,1.09768183799,0.561343267722,0.332918170698,0.493,0.45,1,1,1,1020,4
0.0939556228551,0.208354495606,1.16498322306,0.434314925262,0.48,0.45,2,2,1,1021,4
0.50502548444,1.00028805139,0.359679751749,0.179977760918,0.535,0.45,1,1,1,1022,4
0.0602773420745,0.150805841027,0.310699787629,1.28873792369,0.418,0.45,3,3,2,1023,4
0.310987360148,1.20609799249,0.133662241017,0.318436590831,0.573,0.45,1,1,1,1024,4
1.01905297837,0.205655534732,0.151398833659,0.337281915087,0.485,0.45,0,0,1,1025,4
0.126648961827,0.185902214867,1.12601015952,0.359499012008,0.394,0.45,2,2,2,1026,4
0.314308892805,0.121054094649,0.411039217983,1.20003748033,0.527,0.45,3,3,1,1027,4
1.2395331141,0.157728014025,0.155023083667,0.245847220501,0.527,0.45,0,0,1,1028,4
0.231821980456,0.248402738648,0.63189060339,1.16728183786,0.515,0.45,3,3,1,1029,4
0.268314813066,0.232238423815,0.163554217695,1.04897999292,0.499,0.45,2,3,-1,1030,4
1.04300479891,0.182136712489,0.284107289614,0.023074096331,0.597,0.45,0,0,1,1031,4
0.221811816248,1.19796203311,0.563147761642,0.0663964778157,0.555,0.45,1,1,1,1032,4
0.0976024742295,0.130488049219,0.124719911157,1.20568565857,0.486,0.45,3,3,1,1033,4
0.341789376566,1.04509977212,0.182811827313,0.226769584231,0.512,0.45,1,1,1,1034,4
0.187760385,0.132457909066,1.00149583777,0.208583772104,0.491,0.45,2,2,1,1035,4
0.255091845842,1.16753183666,0.085738450512,0.349396919511,0.496,0.45,1,1,1,1036,4
0.204087739158,0.293684478508,1.06981856735,0.258702569077,0.476,0.45,2,2,1,1037,4
0.131493907022,0.184378898803,0.252813536593,1.02167074529,0.404,0.45,3,3,2,1038,4
1.01107675236,0.244782529959,0.156335221078,0.417536875565,0.465,0.45,0,0,1,1039,4
0.148005857894,0.21596624966,1.00511334362,0.307059593315,0.448,0.45,2,2,2,1040,4
1.09790052577,0.181802399416,0.129387033407,0.345394291049,0.479,0.45,0,0,1,1041,4
0.132478341232,0.146244542938,0.28644185395,1.1121111228,0.401,0.45,3,3,2,1042,4
0.278332709738,0.195031954383,1.18266915461,0.366609101892,0.458,0.45,2,2,1,1043,4
0.196561055324,1.01245923212,0.435331552263,0.14925108326,0.445,0.45,1,1,2,1044,4
1.11393903495,0.212931706756,0.201067504676,0.329285243743,0.429,0.45,0,0,2,1045,4
0.256156769501,1.11448062453,0.12561045538,0.454848798003,0.551,0.45,1,1,1,1046,4
0.15034798798,0.186512464427,0.166508026668,1.07837410771,0.419,0.45,3,3,2,1047,4
0.28457907699,1.02768164873,0.117617929298,0.262213184585,0.46,0.45,1,1,1,1048,4
0.106388042802,0.090959372804,1.02275411173,0.341628775881,0.4,0.45,2,2,2,1049,4
1.07248263091,0.218122925842,0.130582271845,0.488669993474,0.42,0.45,0,0,2,1050,4
0.149401454765,0.204831364617,0.360183250289,1.27960913768,0.467,0.45,3,3,1,1051,4
0.605563750826,0.378644408376,0.203470455756,0.149309735531,0.7,0.45,0,-1,0,1053,4
0.228857552015,0.194618097581,1.06188270867,0.285690078586,0.376,0.45,2,2,2,1053,4
0.132038369082,0.276399428067,0.106247840243,1.0651933099,0.489,0.45,3,3,1,1054,4
0.175178434896,0.236099130897,1.17923108057,0.184172270973,0.55,0.45,2,2,1,1055,4
0.159578678399,1.00964214599,0.303558547781,0.150522739302,0.487,0.45,1,1,1,1056,4
1.18932587058,0.220646342468,0.156596849541,0.263683691705,0.473,0.45,0,0,1,1057,4
0.394977794129,1.02221282147,0.353152548211,0.0890260137801,0.578,0.45,1,1,1,1058,4
0.149096445875,0.176974617188,0.823069024774,1.00135332334,0.544,0.45,3,3,1,1059,4
0.264034710387,1.18282129287,0.0997643327491,0.235210083864,0.576,0.45,1,1,1,1060,4
1.01607847746,0.141125504081,0.189410057226,0.388994912022,0.584,0.45,0,0,1,1061,4
0.119890404217,0.123793333338,0.518251624799,1.07085366272,0.494,0.45,3,3,1,1062,4
0.283688903161,0.170832015277,1.02520994912,0.881087898005,0.576,0.45,2,2,1,1063,4
0.166171147789,0.257200840968,0.320628329801,1.12410532723,0.654,0.45,3,3,1,1064,4
1.04319704772,0.165849903545,0.128590883121,0.255441386325,0.536,0.45,0,0,1,1065,4
0.157908125235,0.192331079379,1.05016525116,0.251010559351,0.421,0.45,2,2,2,1066,4
1.07164826323,0.179519223268,0.184066557915,0.234261179015,0.527,0.45,0,0,1,1067,4
0.450446727562,1.042223348,0.142367531769,0.135955829872,0.567,0.45,1,1,1,1068,4
0.162854455144,0.145630193935,1.02457773265,0.400047329156,0.481,0.45,2,2,1,1069,4
0.236122790143,1.01401946029,0.127162912957,0.324593556929,0.469,0.45,1,1,1,1070,4
0.111046932062,0.159290638875,0.20596073156,1.32562021939,0.429,0.45,3,3,2,1071,4
0.226709347719,1.02369776562,0.145054939986,0.224737600821,0.445,0.45,1,1,2,1072,4
1.11341867955,0.18529304792,0.181958331937,0.361377502084,0.442,0.45,0,0,2,1073,4
0.169153990394,0.187842499908,0.477501817898,1.12311799535,0.464,0.45,3,3,1,1074,4
0.24026593387,0.220554525341,1.10701296137,0.244549382044,0.4,0.45,2,2,2,1075,4
1.08865720153,0.390436220829,0.135680083407,0.333830955854,0.574,0.45,0,0,1,1076,4
0.189255979229,0.202223893257,0.540118047866,0.426049691078,0.7,0.45,2,-1,0,1078,4
0.22467209018,0.140832277048,0.183855153366,1.16489107432,0.46,0.45,3,3,1,1078,4
1.02563827695,0.146470290647,0.140292152004,0.206751768294,0.477,0.45,0,0,1,1079,4
0.192644392078,1.02696942874,0.138640652388,0.236801658434,0.42,0.45,1,1,2,1080,4
0.152639543173,0.0832568992574,1.07125166627,0.434140287697,0.434,0.45,2,2,2,1081,4
0.205185829962,1.25325572733,0.151106828875,0.244237942713,0.447,0.45,1,1,2,1082,4
0.172367094038,0.15167977439,0.678919587785,1.33860405829,0.479,0.45,3,3,1,1083,4
0.258823101153,1.08232627128,0.193660851322,0.236207681378,0.444,0.45,1,1,2,1084,4
0.292406908525,1.2129588191,0.262004166822,0.233960206343,0.52,0.45,1,1,1,1085,5
1.10556031351,0.181967800797,0.385013699513,0.18427034718,0.499,0.45,0,0,1,1086,5
0.302841534711,0.215021005515,1.01788864724,0.205421555932,0.429,0.45,2,2,2,1087,5
0.254324410677,0.240677054375,0.29756471425,1.14911574931,0.439,0.45,3,3,2,1088,5
1.1278178861,0.152443852699,0.191134689934,0.148739339689,0.495,0.45,0,0,1,1089,5
0.158431511465,0.189425167746,0.305315525283,1.06209149049,0.478,0.45,3,3,1,1090,5
0.267264155364,0.271626439562,1.00615032296,0.191312910719,0.538,0.45,2,2,1,1091,5
1.11160281831,0.566388289634,0.0987513147782,0.151606158761,0.585,0.45,0,0,1,1092,5
0.245680525957,1.05748778616,0.135639765399,0.215369698178,0.487,0.45,1,1,1,1093,5
0.162921719174,0.149661863414,0.17634159769,1.04650806414,0.466,0.45,3,3,1,1094,5
0.319377711922,1.01530264214,0.0959006287195,0.181947111559,0.564,0.45,1,1,1,1095,5
0.244583501236,0.136845388369,1.08471803642,0.14758334398,0.523,0.45,2,2,1,1096,5
0.383000418525,1.04855592605,0.0800223368589,0.174672012869,0.504,0.45,1,1,1,1097,5
0.366908666762,0.218051173643,0.128193475159,1.06090120087,0.504,0.45,3,3,1,1098,5
0.273674374371,0.300150200691,0.476479768547,0.203427394162,0.7,0.45,2,-1,0,1100,5
1.13032303763,0.128166027877,0.140047266183,0.161968580352,0.539,0.45,0,0,1,1100,5
0.203886211715,0.177687061424,0.188368093344,1.12877366421,0.471,0.45,3,3,1,1101,5
1.05587087633,0.180554196034,0.177218999102,0.22266987089,0.427,0.45,0,0,2,1102,5
0.189218497921,0.234429248955,1.03808420397,0.228327479689,0.457,0.45,2,2,1,1103,5
0.658345568654,1.13549193718,0.12800159539,0.254709866292,0.493,0.45,1,1,1,1104,5
0.175396907942,0.356198033461,1.0064226599,0.146160888054,0.549,0.45,2,2,1,1105,5
0.195212171647,0.124695283213,0.711232305826,1.09514041653,0.486,0.45,3,3,1,1106,5
0.23124529063,1.17854551096,0.190456750314,0.134981062751,0.516,0.45,1,1,1,1107,5
1.14998324457,0.230894006104,0.185021104952,0.287001145937,0.456,0.45,0,0,1,1108,5
0.255459305681,1.22750766012,0.27414648654,0.212573044675,0.434,0.45,1,1,2,1109,5
1.15540837049,0.266628030826,0.291369467301,0.380283504877,0.539,0.45,0,0,1,1110,5
0.145880976113,0.227274959679,0.27404859611,1.04553707039,0.47,0.45,3,3,1,1111,5
0.186030717178,0.248243521937,0.178205534888,0.147961010489,0.7,0.45,2,-1,0,1113,5
0.183544938902,0.394278902229,0.150880401992,1.10373860689,0.605,0.45,3,3,1,1113,5
1.10863280896,0.237482786188,0.112906648901,0.265394590279,0.538,0.45,0,0,1,1114,5
0.185908900382,0.177633332524,1.04075288854,0.134883958282,0.443,0.45,2,2,2,1115,5
0.336011698091,1.01649770717,0.16534565101,0.190891538486,0.48,0.45,0,1,-1,1116,5
0.165411640706,0.199320543061,0.196684566651,0.391079194123,0.7,0.45,1,-1,0,1118,5
0.460609688173,1.02402744923,0.0968862238598,0.287755420582,0.299,0.45,2,1,-1,1118,5
0.179340785311,1.25193182386,0.135537785926,0.250060948711,0.528,0.45,1,1,1,1119,5
0.157119597377,0.183842884887,0.18489223613,1.11406645991,0.478,0.45,3,3,1,1120,5
0.274069067968,1.1249372138,0.0980247951418,0.183685706051,0.531,0.45,1,1,1,1121,5
1.15837168699,0.149334946038,0.13178882089,0.26924706677,0.466,0.45,0,0,1,1122,5
0.149083524552,0.221265609441,0.187789162964,1.34515100593,0.399,0.45,3,3,2,1123,5
0.192212463626,0.321010140867,0.240751836799,1.13799408728,0.456,0.45,2,3,-1,1124,5
0.0998083512738,0.189920933411,0.307979753444,1.13397933355,0.69,0.45,3,3,1,1125,5
1.20554828387,0.218093496512,0.196602607257,0.199757956505,0.574,0.45,0,0,1,1126,5
0.184512177669,0.309710043051,1.15744364509,0.267806829509,0.458,0.45,2,2,1,1127,5
0.290828275491,1.23241776022,0.255040331039,0.204880990088,0.398,0.45,1,1,2,1128,5
0.176105289592,0.249739114728,0.764641863852,0.373568607202,0.7,0.45,2,-1,0,1130,5
1.16665185079,0.200809100372,0.187014384519,0.248825892367,0.561,0.45,0,0,1,1130,5
0.300922570831,1.02088647489,0.228760994244,0.192994508485,0.623,0.45,1,1,1,1131,5
0.320743550477,0.646874858119,1.03897954333,0.403253887282,0.654,0.45,3,2,-1,1132,5
0.122515711536,0.627679464102,0.233449106959,0.167740743596,0.7,0.45,1,-1,0,1134,5
0.269050434788,1.01265787493,0.310294576157,0.182669836907,0.127,0.45,2,1,-1,1134,5
0.143770071708,0.406001502609,0.312013780312,1.55639353655,0.524,0.45,3,3,1,1135,5
1.02702209803,0.33427641038,0.209773073336,0.224133656802,0.456,0.45,0,0,1,1136,5
0.176800246453,0.327576278286,0.321950847185,1.16376453133,0.512,0.45,3,3,1,1137,5
0.222711297635,0.491344407179,1.03004902576,0.244298698966,0.522,0.45,2,2,1,1138,5
1.12200074349,0.395887503879,0.143396914348,0.278576234667,0.53,0.45,0,0,1,1139,5
0.175189172868,0.242749186625,1.03077923049,0.322239587662,0.482,0.45,2,2,1,1140,5
0.197042579148,1.07245610766,0.17347197651,0.268561351318,0.414,0.45,1,1,2,1141,5
1.11348109557,0.146820085655,0.25552453599,0.276366566543,0.457,0.45,0,0,1,1142,5
0.316905478118,1.07680981853,0.368078130942,0.206175535895,0.492,0.45,1,1,1,1143,5
0.141310175591,0.100366590939,0.710245347379,1.21204636398,0.454,0.45,3,3,1,1144,5
0.20595972285,1.10404669267,0.157804775449,0.129355996027,0.414,0.45,1,1,2,1145,5
1.19417169294,0.236137362836,0.190450053376,0.210259438399,0.469,0.45,0,0,1,1146,5
0.211722974798,0.268640037327,1.16275429536,0.22833798366,0.5,0.45,2,2,1,1147,5
0.118650396183,0.354649308287,0.121014812995,1.05721070532,0.557,0.45,3,3,1,1148,5
0.168547094729,0.25179153464,1.09753260934,0.281831714286,0.497,0.45,2,2,1,1149,5
1.01041370398,0.220259175111,0.165220699449,0.271556758229,0.482,0.45,0,0,1,1150,5
0.145686681131,0.136208953751,0.291835654541,1.26434775845,0.4,0.45,3,3,2,1151,5
1.15965243543,0.255002666525,0.225287408079,0.360016391931,0.501,0.45,0,0,1,1152,5
0.202412257076,1.17395018731,0.246410748808,0.35397497043,0.492,0.45,1,1,1,1153,5
0.120068611623,0.125084845724,0.155755458841,1.3074012859,0.402,0.45,3,3,2,1154,5
0.33306680235,1.15983580661,0.138855714244,0.285394360145,0.518,0.45,1,1,1,1155,5
0.208365876405,0.136465295372,1.0910220735,0.261133965457,0.455,0.45,2,2,1,1156,5
0.224533565197,0.490678012505,0.174522106969,0.28235333977,0.7,0.45,1,-1,0,1158,5
0.101119838155,0.503278147531,1.06070463753,0.2328296137,0.477,0.45,2,2,1,1158,5
0.144195405033,0.108227788671,0.336500874132,1.24865656168,0.486,0.45,3,3,1,1159,5
1.01395815476,0.273981763527,0.192102723516,0.284193727576,0.469,0.45,0,0,1,1160,5
0.18337893691,0.219027828548,0.496933469299,1.02888052354,0.47,0.45,3,3,1,1161,5
0.146118848969,0.200229032838,1.00077864876,0.247880056842,0.447,0.45,2,2,2,1162,5
1.1167314168,0.22517030122,0.15123600481,0.290943706591,0.559,0.45,0,0,1,1163,5
0.210737529391,0.203201222873,1.12920479017,0.365823489231,0.475,0.45,2,2,1,1164,5
0.170656726358,1.23916950868,0.138922044636,0.486026810005,0.481,0.45,1,1,1,1165,5
0.098607164812,0.161279651297,0.153492386295,1.15474177778,0.386,0.45,3,3,2,1166,5
0.159116790883,1.31690685682,0.134513646947,0.150717801678,0.451,0.45,1,1,1,1167,5
1.15818992961,0.170916170495,0.125924789476,0.295120406158,0.493,0.45,0,0,1,1168,5
0.21969574904,1.20491030679,0.14371649184,0.26640882951,0.43,0.45,1,1,2,1169,5
0.12191542677,0.17003129883,0.73384927828,1.07925839935,0.49,0.45,3,3,1,1170,5
0.166651431573,0.284655022561,1.15393047558,0.22656061488,0.474,0.45,2,2,1,1171,5
0.374883984692,1.02234222163,0.227120329741,0.177943995165,0.467,0.45,0,1,-1,1172,5
0.195082188563,0.15440550395,1.06785462981,0.371723878264,0.507,0.45,2,2,1,1173,5
0.240773940057,0.160133839738,0.174908164081,1.30016858458,0.469,0.45,3,3,1,1174,5
1.19337753558,0.17680091126,0.140518228458,0.171254724081,0.454,0.45,0,0,1,1175,5
0.194687261882,1.13709739046,0.170271572468,0.253132386461,0.439,0.45,1,1,2,1176,5
0.130700847435,0.181587647779,1.04320073429,0.312293254687,0.447,0.45,2,2,2,1177,5
0.323480217474,1.08177418784,0.0777973208243,0.290183139937,0.526,0.45,1,1,1,1178,5
1.22411229258,0.193218488038,0.223083206716,0.308629295979,0.486,0.45,0,0,1,1179,5
0.229561400426,0.237355875539,0.455538694337,1.0976154204,0.423,0.45,3,3,2,1180,5
0.201923441301,1.06645188955,0.110860495273,0.137036452103,0.44,0.45,1,1,2,1181,5
0.360543644919,0.159879911853,0.154548706582,1.20038166731,0.454,0.45,3,3,1,1182,5
0.432572895624,0.114106118285,1.01110429922,0.425326976568,0.535,0.45,2,2,1,1183,5
1.08521045381,0.585223306844,0.155863943192,0.209603456327,0.593,0.45,0,0,1,1184,5
0.144522754873,0.254543163272,0.868825651244,0.291281913391,0.7,0.45,2,-1,0,1186,5
0.184683259012,0.0870764016332,0.202951922312,1.12075053797,0.511,0.45,3,3,1,1186,5
1.16196194389,0.10204223373,0.123918647793,0.181032857061,0.463,0.45,0,0,1,1187,5
0.148682266897,0.193471780391,0.852901220144,1.35643211616,0.516,0.45,3,3,1,1188,5
0.207327332827,1.1201935658,0.104205845727,0.223499198002,0.527,0.45,1,1,1,1189,5
0.190065018459,0.103329531405,1.19113110766,0.336630626087,0.481,0.45,2,2,1,1190,5
0.254969325013,1.1395202662,0.170156532268,0.285535762878,0.509,0.45,1,1,1,1191,5
1.20478918347,0.178855320612,0.178234131355,0.328141360977,0.462,0.45,0,0,1,1192,5
0.210311625092,1.20669220198,0.332601727866,0.175976307353,0.54,0.45,1,1,1,1193,5
0.190965847321,0.173452467777,0.174559965292,1.0909301733,0.454,0.45,3,3,1,1194,5
0.133991712712,0.234051269962,1.14233909714,0.191145146613,0.557,0.45,2,2,1,1195,5
1.02806657201,0.325662732489,0.13718970013,0.310338126312,0.512,0.45,0,0,1,1196,5
0.191602837018,0.19044728734,0.288861080338,1.08786078494,0.54,0.45,3,3,1,1197,5
1.00842720139,0.163151385925,0.151399912303,0.267395351688,0.591,0.45,0,0,1,1198,5
0.191421796445,0.130618323545,1.00280893073,0.379757979854,0.551,0.45,2,2,1,1199,5
0.252413673454,0.221462006499,0.181726091934,1.12401079966,0.573,0.45,3,3,1,1200,5
0.183505856939,1.22679762996,0.185134649438,0.207166843473,0.624,0.45,1,1,1,1201,5
0.194978961314,0.0884338397955,1.12419125651,0.346862771138,0.484,0.45,2,2,1,1202,5
0.639132244352,1.24464633837,0.195193598394,0.294270211955,0.559,0.45,1,1,1,1203,5
1.01468196066,0.167556377811,0.209282360968,0.349178019565,0.49,0.45,0,0,1,1204,5
0.178223997581,1.18865468128,0.180353619795,0.327754662794,0.417,0.45,1,1,2,1205,5
0.173366798323,0.183121753266,1.10771569779,0.420741210609,0.427,0.45,2,2,2,1206,5
1.28624456376,0.126819965233,0.0823359978128,0.808686094648,0.536,0.45,0,0,1,1207,5
0.174943860318,0.158712605375,0.165417037784,1.239588327,0.449,0.45,3,3,2,1208,5
0.359374475226,0.127894319833,1.01872598905,0.131551636792,0.508,0.45,2,2,1,1209,5
0.160682644862,0.195811561833,0.374880487444,1.19566094332,0.543,0.45,3,3,1,1210,5
1.10857110163,0.162905384466,0.180578013619,0.216694124194,0.522,0.45,0,0,1,1211,5
0.332363569818,1.25674640468,0.316538657349,0.345039065004,0.484,0.45,1,1,1,1212,5
1.07891776619,0.224602284863,0.312182395559,0.34149114893,0.553,0.45,0,0,1,1213,5
0.208888049893,0.255257812336,1.07528973354,0.316881608202,0.511,0.45,2,2,1,1214,5
0.382070885397,1.23198160089,0.157482665434,0.273254075963,0.544,0.45,1,1,1,1215,5
0.174457121564,0.168191080384,0.389799953466,1.3416565489,0.473,0.45,3,3,1,1216,5
0.332755513565,1.19760932956,0.143562665448,0.246278500641,0.476,0.45,1,1,1,1217,5
1.14851940822,0.206627978055,0.175341749651,0.304756595317,0.411,0.45,0,0,2,1218,5
0.212936639451,0.208972224527,1.03219683872,0.54111125513,0.447,0.45,2,2,2,1219,5
