force_0,force_1,force_2,force_3,rt,rt_threshold,target_finger,selected_finger,score,trial,run
1.8627158252,1.61651500115,1.55421854453,0.722857469781,0.004,0.45,1,0,-1,0,0
0.339477518815,0.447831386569,1.02337805452,0.200961604094,0.523,0.45,2,2,1,1,0
0.764995337616,0.537669573548,0.364177485198,1.01733899272,0.486,0.45,3,3,1,2,0
1.07552249357,0.338769506751,0.346781685159,0.744734779476,0.405,0.45,0,0,2,3,0
0.683277472762,0.349779427072,0.368374626032,1.02158497342,0.458,0.45,3,3,1,4,0
0.504593679582,0.270998806654,1.06189828436,0.598626776514,0.442,0.45,2,2,2,5,0
1.04615483931,0.246422653806,0.116544929241,0.344172372554,0.42,0.45,0,0,2,6,0
1.05469464084,0.22165565967,0.182358977972,0.410320498089,0.432,0.45,1,0,-1,7,0
0.512911491468,0.376097139568,0.242792965552,1.04717861018,0.466,0.45,3,3,1,8,0
0.414638127799,1.057252057,0.240298908325,0.586125119534,0.476,0.45,1,1,1,9,0
1.00911456706,0.100467971776,0.218600488855,0.463851558457,0.399,0.45,0,0,2,10,0
0.347133426167,0.0615224805147,1.03164285431,0.199765663596,0.39,0.45,2,2,2,11,0
0.552071626096,1.03133499325,0.125923741994,0.261288874757,0.531,0.45,1,1,1,12,0
1.08694032762,0.0967805846969,0.0723077957821,0.197438981104,0.432,0.45,0,0,2,13,0
0.449188099114,0.204242577084,0.289608896929,0.182542846893,0.7,0.45,2,-1,0,15,0
0.339449717146,0.225742588386,0.200863719813,1.05127923903,0.66,0.45,3,3,1,15,0
1.03324189014,0.32692388214,0.184851626652,0.412161241742,0.539,0.45,0,0,1,16,0
0.563614939016,0.228104527709,0.190939436739,1.03077162099,0.482,0.45,3,3,1,17,0
0.427541675003,0.137373786052,1.06072295359,0.586347617796,0.501,0.45,2,2,1,18,0
1.06389353431,0.153177838014,0.112721428717,0.427950504112,0.452,0.45,0,0,1,19,0
0.483595385299,1.00006062433,0.136993541076,0.286705072227,0.433,0.45,1,1,2,20,0
0.382910520369,0.0968965246151,1.00098538743,0.00942874870227,0.471,0.45,2,2,1,21,0
0.374069223283,1.02087251252,0.126672191896,0.0711978088284,0.666,0.45,1,1,1,22,0
0.502495907945,0.470640604015,0.449026221145,1.02739468184,0.667,0.45,3,3,1,23,0
0.313815749786,1.00580680261,0.244812153842,0.291905656838,0.564,0.45,1,1,1,24,0
1.00366525525,0.240821409125,0.24313796029,0.118367013804,0.469,0.45,0,0,1,25,0
0.394354308171,0.333331421586,0.3085361336,0.0249672403287,0.7,0.45,2,-1,0,27,0
0.719880602525,0.409312968567,0.330344779387,1.03294787253,0.522,0.45,3,3,1,27,0
1.14899587144,0.212286533495,0.261187161328,0.21998540598,0.479,0.45,0,0,1,28,0
0.466000423577,0.41625043663,0.734734596177,1.03661046499,0.605,0.45,3,3,1,29,0
0.44613075532,0.142115109914,1.02813846068,0.205100798464,0.641,0.45,2,2,1,30,0
1.04484444011,0.218056330371,0.252016647809,0.236701951013,0.528,0.45,0,0,1,31,0
0.278236714719,1.01238370846,0.256105387874,0.125973308514,0.504,0.45,1,1,1,32,0
0.223172934937,0.223926524552,0.332050625104,0.0427333797964,0.7,0.45,2,-1,0,34,0
0.458935101082,0.349693081002,1.0068569168,-0.0319647620038,0.238,0.45,1,2,-1,34,0
0.444665486261,0.586276618515,0.341558605911,1.0076918901,0.488,0.45,3,3,1,35,0
0.139916992428,1.03520648594,0.225676543148,0.233622663256,0.454,0.45,1,1,1,36,0
1.09731357156,0.345954865907,0.211059535417,0.203646162679,0.431,0.45,0,0,2,37,0
0.472049604843,0.459795318527,0.56100691432,1.06290107219,0.486,0.45,3,3,1,38,0
0.379740090641,0.496075523267,1.07305424276,0.23220602096,0.472,0.45,2,2,1,39,0
0.483898319419,0.42836342162,0.303984807235,1.07610118367,0.575,0.45,3,3,1,40,0
0.846980358222,0.838234021385,0.194587959961,0.310721707594,0.7,0.45,0,-1,0,42,0
1.15816768687,0.827672082177,0.19414274189,0.336866827871,0.017,0.45,2,0,-1,42,0
0.2935340151,0.257582115194,1.02746646192,0.0366674956364,0.093,0.45,1,2,-1,43,0
0.435970829299,0.38727197397,0.293248896679,1.02451125841,0.437,0.45,3,3,2,44,0
0.180790748041,1.03594968128,0.180070138997,0.153053183909,0.511,0.45,1,1,1,45,0
0.197375251841,0.172114495399,0.218086330582,0.111108520314,0.7,0.45,2,-1,0,47,0
1.02372538713,0.152759748071,0.0996639430797,0.0972341071743,0.654,0.45,0,0,1,47,0
0.191574405731,1.01226322141,0.12750596642,0.0319931005369,0.492,0.45,1,1,1,48,0
1.00940805908,0.242964511668,0.161282761861,0.0821705539034,0.457,0.45,0,0,1,49,0
0.266896788001,0.266988462564,0.130768629496,0.0458982196897,0.7,0.45,2,-1,0,51,0
0.528061792988,0.339137794291,0.242053100322,1.03097805514,0.422,0.45,3,3,2,51,0
0.368284826673,0.502399119945,0.65452944356,-0.02115784981,0.7,0.45,2,-1,0,53,0
0.993257664204,0.524256483604,0.100830416056,0.0392755309845,0.7,0.45,0,-1,0,54,0
1.01387223139,0.490053123097,0.101164159599,0.0379124258934,0.014,0.45,3,0,-1,54,0
0.152053954965,1.03009980595,0.154070193499,0.130183443942,0.478,0.45,1,1,1,55,0
0.289539137815,0.262762798639,1.02983210429,-0.0482292454737,0.457,0.45,2,2,1,56,0
0.342786901461,1.0245057778,0.187588249483,0.133394064217,0.476,0.45,1,1,1,57,0
0.574954194673,0.380339109293,0.310641905199,1.04008740403,0.463,0.45,3,3,1,58,0
1.08037858649,0.237615908397,0.176645538003,0.14603002843,0.407,0.45,0,0,2,59,0
0.361430423566,1.02855481121,0.196634874628,0.13133068703,0.369,0.45,1,1,2,60,0
1.13248810481,0.147362387179,0.0841830398535,0.12932403075,0.494,0.45,0,0,1,61,0
0.325194327633,0.0850691371719,1.02233985175,0.0996776081136,0.486,0.45,2,2,1,62,0
0.44059493914,0.263216614746,0.225405808017,1.11401121655,0.43,0.45,3,3,2,63,0
0.431080353273,0.201250189394,1.00532783269,0.222365738699,0.515,0.45,2,2,1,64,0
1.0030070717,0.163308887579,0.240858836004,0.288947876578,0.482,0.45,0,0,1,65,0
0.447631413102,0.317701111599,0.252798274049,1.02817234372,0.456,0.45,3,3,1,66,0
1.04369875729,0.215764558748,0.199382579694,0.349335399467,0.483,0.45,0,0,1,67,0
0.4057039875,1.00873006877,0.210145863448,0.46368065604,0.488,0.45,1,1,1,68,0
0.277015480171,1.02739601668,0.144701064523,0.195390458918,0.495,0.45,2,1,-1,69,0
0.435513261597,1.0380428576,0.173211651972,0.197020155406,0.57,0.45,1,1,1,70,0
0.407832234715,0.326772754553,0.280322092452,1.0760037584,0.535,0.45,3,3,1,71,0
0.262149826588,1.05043875744,0.164891613429,0.221931463812,0.477,0.45,1,1,1,72,0
0.364679725158,0.44405667618,0.737254444327,0.0397460743339,0.7,0.45,2,-1,0,74,0
0.374600197689,0.299817866745,0.256926032676,1.01157539222,0.509,0.45,3,3,1,74,0
1.00632529483,0.204480383557,0.200804218075,0.195780710522,0.46,0.45,0,0,1,75,0
0.362610973552,0.303279587961,0.525972270368,1.00449342243,0.592,0.45,3,3,1,76,0
0.349316536864,0.162596304323,1.01797316762,0.178989406725,0.616,0.45,2,2,1,77,0
1.01870932332,0.181514583274,0.206055264682,0.234945166666,0.605,0.45,0,0,1,78,0
0.33039381102,0.159274442663,1.00409638318,0.0136121338504,0.55,0.45,2,2,1,79,0
0.308216061672,1.00901522893,0.145600149206,0.189152685117,0.603,0.45,1,1,1,80,0
1.01350597126,0.184750158749,0.154711034926,0.136039696776,0.571,0.45,0,0,1,81,0
0.236828748977,1.02937846199,0.172674827274,0.0938172123826,0.551,0.45,1,1,1,82,0
0.241268541662,0.340877849511,0.290707486304,0.650751249382,0.7,0.45,3,-1,0,84,0
0.163103142401,1.03363918827,0.131570460851,0.0629816170294,0.637,0.45,1,1,1,84,0
0.0965428464327,0.112160685388,0.372881502311,0.0807580503453,0.7,0.45,2,-1,0,86,0
0.253899894507,0.15451185786,0.369054323993,1.05227599806,0.48,0.45,3,3,1,86,0
0.133104527479,0.1414064068,0.0503411017471,-0.0183238942327,0.7,0.45,0,-1,0,88,0
0.183516395989,0.215104368615,0.163800752225,1.00407355436,0.42,0.45,3,3,2,88,0
0.106245993572,0.0962726687779,1.02266095662,0.0991846295877,0.531,0.45,2,2,1,89,0
1.03480374828,0.0729481908918,0.146537717433,0.182021901284,0.67,0.45,0,0,1,90,0
0.206834221073,0.207727898984,1.00435742287,0.039911614108,0.599,0.45,2,2,1,91,0
0.651729309823,0.673056989925,0.14387581192,0.14247544415,0.7,0.45,1,-1,0,93,0
0.41535223849,0.210769416638,0.170619041107,0.116657466376,0.7,0.45,0,-1,0,94,0
1.01356441973,0.190169682884,0.138362386165,0.103514106037,0.121,0.45,1,0,-1,94,0
0.2216275862,0.136791195998,0.0892477548635,0.0415137081283,0.7,0.45,3,-1,0,96,0
0.303472115464,0.269895561321,0.178023567393,1.10794096393,0.248,0.45,1,3,-1,96,0
1.04289078746,0.164505899735,0.10654903967,-0.0423580056406,0.382,0.45,0,0,2,97,0
0.304845161303,0.770476353738,1.12516456045,0.309648855796,0.482,0.45,2,2,1,98,0
0.32435673678,0.340480540954,0.285380947967,1.02347161803,0.452,0.45,3,3,1,99,0
1.04974312178,0.477838662766,0.21470421274,0.284799031448,0.549,0.45,0,0,1,100,0
0.439404329779,0.406518893767,0.463628532564,1.05662768216,0.568,0.45,3,3,1,101,0
0.176502589759,0.139061786626,1.02436984959,0.189792179253,0.498,0.45,2,2,1,102,0
1.03713838128,0.179948802538,0.215656291385,0.167737219466,0.588,0.45,0,0,1,103,0
0.153214321846,1.01299281856,0.189373005344,0.0640210030917,0.485,0.45,1,1,1,104,0
0.310926779206,0.430184070475,1.02850032111,-0.0755046435846,0.6,0.45,2,2,1,105,0
0.220164442636,1.00408174296,0.384442661061,0.0373086871045,0.608,0.45,1,1,1,106,0
0.458554815611,0.418970417252,0.413039890316,1.03036386027,0.585,0.45,3,3,1,107,0
0.15556268725,1.01441431595,0.211820236631,0.145538749674,0.516,0.45,1,1,1,108,0
1.03506347518,0.31722566962,0.228262485349,0.0438566430558,0.455,0.45,0,0,1,109,0
0.344015383511,0.328325172436,0.645241380456,1.13254223239,0.481,0.45,3,3,1,110,0
0.161372512804,0.0997503057641,1.06579034524,0.118066057506,0.379,0.45,2,2,2,111,0
0.329940216088,0.39642491054,0.259509006321,1.16397830348,0.585,0.45,3,3,1,112,0
1.09624578602,0.376762018234,0.200493791408,0.121972666972,0.523,0.45,0,0,1,113,0
0.239805750612,0.228152343748,1.06654813087,-0.0348338902766,0.395,0.45,2,2,2,114,0
1.09354337622,0.287932328929,0.325323954049,0.229445479392,0.47,0.45,0,0,1,115,0
0.257619265691,1.12868709044,0.259016367717,0.267908460461,0.477,0.45,1,1,1,116,0
0.0998985677025,1.00444631186,0.221491113651,0.113254862164,0.405,0.45,2,1,-1,117,0
0.201672850159,1.03320424054,0.202383934489,0.100782310807,0.53,0.45,1,1,1,118,0
0.338020630544,0.374638155642,0.323452046635,1.08698963026,0.402,0.45,3,3,2,119,0
0.56051213361,1.04028954373,0.268217868487,0.13975680964,0.384,0.45,1,1,2,120,0
1.07310062469,0.239399677099,0.248727626016,0.124253545042,0.335,0.45,0,0,2,121,0
0.214366711851,0.291696006575,0.627673875785,1.10401601335,0.418,0.45,3,3,2,122,0
0.288141576387,0.240221003505,1.06999041958,0.153793452907,0.419,0.45,2,2,2,123,0
1.01507269761,0.345987544582,0.254758074901,0.117875562721,0.453,0.45,0,0,1,124,0
0.121071845955,0.170513306374,1.04450003789,-0.0448112707253,0.401,0.45,2,2,2,125,0
0.366326022927,0.395948599148,0.294961622948,1.06434690551,0.428,0.45,3,3,2,126,0
0.116011620058,1.0944234331,0.169320468958,0.0198212931067,0.399,0.45,1,1,2,127,0
0.328812993177,0.285056845816,0.29867748232,1.05959697709,0.493,0.45,3,3,1,128,0
1.017309978,0.264555062173,0.168584594002,0.0149951866264,0.416,0.45,0,0,2,129,0
0.141158348891,1.04461907425,0.164100616734,-0.00097435795495,0.364,0.45,1,1,2,130,0
0.100567744625,1.00080060599,0.185616863615,-0.0164229873508,0.354,0.45,2,1,-1,131,0
0.198562066438,1.01948440928,0.168741437367,0.0150218555204,0.45,0.45,1,1,1,132,0
0.329607317465,0.185352927568,0.274027917268,1.00906180341,0.375,0.45,3,3,2,133,0
0.31388340982,0.175066259467,1.09563361972,0.0312955037235,0.424,0.45,2,2,2,134,0
1.04165440929,0.173828359123,0.184171599491,0.111278316227,0.41,0.45,0,0,2,135,0
0.321446352138,0.239510037092,0.493028024315,1.04860922213,0.436,0.45,3,3,2,136,0
0.202206932926,1.02728430683,0.194304747142,0.0402822914715,0.453,0.45,0,1,-1,137,0
0.513319679146,0.123557929505,1.0208319806,0.0225000762641,0.501,0.45,2,2,1,138,0
0.376810674198,0.291335975898,0.258383719828,1.12233025758,0.513,0.45,3,3,1,139,0
0.349775357089,1.03574859466,0.136025623478,0.0621649151858,0.441,0.45,1,1,2,140,0
1.04745936681,0.179004262728,0.163503974794,0.0822154564384,0.384,0.45,0,0,2,141,0
0.146642402715,1.10439986843,0.206695502137,0.0452599822221,0.442,0.45,1,1,2,142,0
0.203956422426,0.0921981829089,1.04388417133,0.00156683395323,0.47,0.45,2,2,1,143,0
0.215698660608,1.04585171637,0.0854278664325,0.0701265100726,0.517,0.45,1,1,1,144,0
0.252105108424,0.0928493013858,1.00417689399,-0.00454276516186,0.537,0.45,2,2,1,145,0
1.14018412747,0.158673500031,0.124869128715,0.115919845086,0.516,0.45,0,0,1,146,0
0.32614971165,0.230642778053,0.323748590577,1.03247286057,0.511,0.45,3,3,1,147,0
1.04805965019,0.198782483353,0.104765881678,-0.00945481642688,0.471,0.45,0,0,1,148,0
0.17201850317,0.127314854182,1.0512752395,-0.0827673203952,0.475,0.45,2,2,1,149,0
0.433932218182,0.28199500684,0.26583363842,1.03907181309,0.503,0.45,3,3,1,150,0
0.394987333599,0.241510729767,1.00548410038,-0.0374304330728,0.522,0.45,2,2,1,151,0
0.227536122671,1.00667047736,0.125049677748,0.0444832173711,0.498,0.45,1,1,1,152,0
0.187627238882,0.29758691945,0.240731186688,1.00741541313,0.613,0.45,3,3,1,153,0
0.119428224016,1.04753819083,0.0555255217545,0.00139592919059,0.545,0.45,1,1,1,154,0
1.13222437772,0.080598370411,0.0339359335316,0.0526223354979,0.437,0.45,0,0,2,155,0
0.240012418484,1.0703772906,0.0765363290692,0.165002727358,0.579,0.45,1,1,1,156,0
0.211277184659,0.180041809479,1.11012798217,0.0102624153336,0.467,0.45,2,2,1,157,0
1.01449762861,0.285499481182,0.156340858182,0.0878927239487,0.48,0.45,0,0,1,158,0
0.392977494921,0.356561700164,0.484099336103,1.23149826806,0.511,0.45,3,3,1,159,0
1.07160399411,0.268105755565,0.140869462065,0.0881234821479,0.445,0.45,0,0,2,160,0
0.255061769154,0.190010419629,1.05844738534,-0.0328304836706,0.441,0.45,2,2,2,161,0
0.444915968312,0.296690746097,0.280832639063,1.20513523074,0.461,0.45,3,3,1,162,0
0.833485459073,1.1719618543,0.126508818636,0.0645236539954,0.471,0.45,1,1,1,163,0
1.0847780136,0.185581371267,0.164022146805,0.0189104451687,0.38,0.45,0,0,2,164,0
0.169234904589,1.01968387745,0.197780605413,-0.0327620697542,0.362,0.45,1,1,2,165,0
0.396125817404,0.353275840065,0.498849334242,1.12952325916,0.417,0.45,3,3,2,166,0
0.295864294261,0.241365097632,1.00255242691,0.00515889451137,0.479,0.45,2,2,1,167,0
0.163762487438,1.09872045338,0.116727473265,0.0542861164371,0.45,0.45,1,1,1,168,0
0.502621661091,0.346051545538,0.362085195898,1.0207628013,0.532,0.45,3,3,1,169,0
1.12376026949,0.320517925152,0.203181578523,0.102235348806,0.464,0.45,0,0,1,170,0
0.184612719089,0.114127513943,1.06585598286,-0.04202903343,0.443,0.45,2,2,2,171,0
1.07839004595,0.252685715596,0.191041114491,0.103151012979,0.473,0.45,0,0,1,172,0
0.405066221631,0.434693966185,0.335016598539,1.1513872491,0.467,0.45,3,3,1,173,0
0.207952428239,1.05586787426,0.200879802242,0.050143782292,0.358,0.45,2,1,-1,174,0
0.125142262516,1.07245424498,0.223531403966,0.0418697638145,0.383,0.45,1,1,2,175,0
0.190684368749,0.805168473959,1.04589360068,0.00638872012181,0.508,0.45,2,2,1,176,0
0.21815164212,0.0830580262059,1.03472719477,-0.0120486072964,0.445,0.45,3,2,-1,177,0
0.218012664605,1.04022210383,0.221962711431,-0.000164181042635,0.396,0.45,1,1,2,178,0
1.16498956052,0.304089944465,0.21415850233,0.0825172791529,0.393,0.45,0,0,2,179,0
0.154024638425,1.07872533934,0.399037861442,0.0160507002765,0.39,0.45,1,1,2,180,0
0.334225120385,0.354892478669,0.302698714143,1.08131065702,0.399,0.45,3,3,2,181,0
0.237341948832,1.02640178607,0.167641541968,0.0592782429645,0.443,0.45,0,1,-1,182,0
0.176387507498,0.254471175165,1.03765686731,-0.0253231513869,0.422,0.45,2,2,2,183,0
0.366084360231,0.28713512911,0.238767430365,1.02169429325,0.397,0.45,3,3,2,184,0
0.272175416746,1.05222930551,0.147939071078,0.0666461856144,0.368,0.45,2,1,-1,185,0
1.13898914096,0.202445519598,0.169338135803,0.065067061337,0.336,0.45,0,0,2,186,0
0.221298270758,1.13644819504,0.141214905788,-0.0144474441757,0.353,0.45,1,1,2,187,0
0.140722674311,1.09564755208,0.196033092202,0.278640729877,0.416,0.45,2,1,-1,188,0
0.117993720379,1.08904049458,0.132408422282,-0.0329091112252,0.511,0.45,1,1,1,189,0
1.01214622851,0.294112441371,0.175689914638,0.0343627610879,0.433,0.45,0,0,2,190,0
0.29521237715,0.33864795608,0.30276555692,1.12888689731,0.384,0.45,3,3,2,191,0
0.142533280083,1.10657196177,0.105785594639,0.0259557340065,0.468,0.45,1,1,1,192,0
0.320897582602,0.260605019052,0.325566116197,1.05943637452,0.485,0.45,3,3,1,193,0
0.267418695247,0.100119689218,1.08687541986,-0.0523407400386,0.454,0.45,2,2,1,194,0
1.04385716827,0.152535007515,0.121331138157,-0.00822778733753,0.356,0.45,0,0,2,195,0
0.199164262294,0.0901198578313,1.02669265306,-0.131029936823,0.394,0.45,2,2,2,196,0
0.348956044129,0.323581175512,0.29267520298,1.00577375053,0.472,0.45,3,3,1,197,0
1.02063833777,0.262063471117,0.137031614584,-0.0161989049844,0.415,0.45,0,0,2,198,0
0.133287249044,1.09417742266,0.127617446942,-0.094156098753,0.343,0.45,1,1,2,199,0
0.227137862428,0.175931417651,1.04715627682,-0.0734396600048,0.358,0.45,2,2,2,200,0
0.089766846764,1.1034880106,0.0994860588219,0.0757554981683,0.428,0.45,1,1,2,201,0
1.18056893751,0.17256112389,0.172782864043,-0.0225980465101,0.377,0.45,0,0,2,202,0
0.148420294426,0.104814931798,1.02558770668,0.0484157084434,0.418,0.45,3,2,-1,203,0
0.156879935815,1.10828165711,0.11259251499,-0.0141307970324,0.425,0.45,1,1,2,204,0
0.150074387386,0.0690834149005,1.1286303078,0.0437154857164,0.501,0.45,2,2,1,205,0
1.03648985612,0.154468751796,0.184974703115,0.0677494003799,0.67,0.45,3,0,-1,206,0
0.102982807761,0.144978766681,0.19091112573,0.00208152412686,0.7,0.45,0,-1,0,208,0
0.229346350406,0.138163092123,0.479246325475,1.10503369256,0.515,0.45,3,3,1,208,0
0.192174431943,0.0982418956156,1.05799788088,-0.0315682043857,0.423,0.45,2,2,2,209,0
1.0429018243,0.162191750331,0.126026229241,0.0667974986346,0.324,0.45,0,0,2,210,0
0.166842161698,1.13507942304,0.214412362455,-0.00266386711109,0.416,0.45,1,1,2,211,0
1.03644484336,0.226181119128,0.21766028015,0.0174391023989,0.49,0.45,0,0,1,212,0
0.0972348460326,0.14479832147,1.05782030474,-0.0747301686417,0.45,0.45,2,2,1,213,0
0.438884342947,1.07980010566,0.119977376196,0.0621122362203,0.531,0.45,1,1,1,214,0
0.292097085714,0.26324944541,0.315477191859,1.08805076309,0.498,0.45,3,3,1,215,0
0.0868521858461,1.1742892579,0.076219299859,-0.0244741482394,0.475,0.45,1,1,1,216,0
0.127926469699,0.507552256913,0.359039690668,-0.0248940885311,0.7,0.45,2,-1,0,218,1
0.15020957887,0.463522026652,1.06468611715,-0.0711126523591,0.166,0.45,1,2,-1,218,1
1.06932055606,0.168911969968,0.216208331641,-0.0236174375719,0.329,0.45,0,0,2,219,1
0.247805160073,0.10909772642,1.02750665015,-0.0259001167395,0.338,0.45,3,2,-1,220,1
0.138511426007,1.14031933438,0.28544244805,0.143529274384,0.35,0.45,1,1,2,221,1
0.42398705954,0.604859524,0.574522782778,1.09875085137,0.49,0.45,3,3,1,222,1
1.26535882623,0.330711081036,0.266618573624,0.168503894576,0.408,0.45,0,0,2,223,1
0.307071027624,0.257043942068,1.07713068586,0.0299593472454,0.393,0.45,2,2,2,224,1
1.08128778769,0.344352253054,0.242172052063,0.0945349869693,0.333,0.45,0,0,2,225,1
1.1184959112,0.247300663699,0.278415325842,0.0725329306886,0.352,0.45,1,0,-1,226,1
0.143936084963,0.452281243133,1.07556987415,0.0202656920643,0.401,0.45,2,2,2,227,1
0.304526954078,0.399323892345,0.327950314864,1.09575014725,0.376,0.45,3,3,2,228,1
0.221271249467,0.137095063021,1.03783048176,0.0312344451932,0.405,0.45,2,2,2,229,1
1.00846900786,0.266572282957,0.248156999979,0.075213763245,0.316,0.45,0,0,2,230,1
0.120799350147,1.03036948273,0.366617528285,0.0192196178376,0.337,0.45,1,1,2,231,1
0.111260181033,0.272070783894,0.203866398861,0.28359564869,0.7,0.45,3,-1,0,233,1
0.245170114138,0.28154202981,0.213173510608,1.08950437816,0.0670000000001,0.45,1,3,-1,233,1
0.159978425373,1.01555811144,0.202409658864,0.0991500990328,0.284,0.45,0,1,-1,234,1
0.21876139819,0.0487689031537,1.03988655907,0.0282221819043,0.374,0.45,3,2,-1,235,1
0.1537784576,0.255480948067,0.4928308945,0.014259051864,0.7,0.45,2,-1,0,237,1
0.196009846418,1.06745497439,0.143846827661,0.0745165394216,0.438,0.45,1,1,2,237,1
0.185046505214,0.170685866975,1.03539951638,-0.0237886087038,0.424,0.45,2,2,2,238,1
0.389754091501,0.240859436759,0.163849514872,1.00449107035,0.348,0.45,3,3,2,239,1
1.21846569166,0.140091670554,0.154941484558,0.144859725435,0.345,0.45,0,0,2,240,1
0.169590176705,0.48980978984,1.05631385438,-0.0151136505651,0.393,0.45,2,2,2,241,1
0.223260363833,0.0850829893968,0.158337696985,1.16551623709,0.358,0.45,3,3,2,242,1
1.06459547717,0.0566342332206,0.174202408812,0.184411381097,0.375,0.45,0,0,2,243,1
0.175508613466,1.11070224074,0.168853563168,0.0484806313499,0.333,0.45,1,1,2,244,1
0.251259595125,0.230004748469,0.309383568791,1.14291773395,0.319,0.45,3,3,2,245,1
1.1936565031,0.141812786764,0.226668394319,0.111015962892,0.334,0.45,1,0,-1,246,1
1.05606797426,0.163393557979,0.170278793235,-0.039956698837,0.362,0.45,0,0,2,247,1
0.0618383818842,0.886511416722,1.04805273614,-0.0832819335451,0.439,0.45,2,2,2,248,1
1.01027624368,0.100636752932,0.125694144071,0.0615608836449,0.413,0.45,0,0,2,249,1
0.337436311933,0.209884445829,0.312197191175,1.03499180892,0.42,0.45,3,3,2,250,1
0.311761417711,0.356545755072,1.11051917054,0.0995324382588,0.447,0.45,2,2,2,251,1
0.16621987676,1.03546105805,0.213337828328,0.10520882315,0.371,0.45,1,1,2,252,1
0.231243502015,0.125043710977,1.05020793105,0.159822083737,0.462,0.45,2,2,1,253,1
0.301885018046,1.04928436081,0.189976029875,0.0472389841325,0.512,0.45,1,1,1,254,1
0.375411611024,0.409836303023,0.668943458976,1.00062908904,0.54,0.45,3,3,1,255,1
1.02569712999,0.136444600168,0.252453661042,0.0344722618814,0.458,0.45,0,0,1,256,1
0.162529878947,1.09959201933,0.191525135483,-0.0202898639439,0.446,0.45,1,1,2,257,1
1.13869436049,0.100072319604,0.273555178401,-0.00859446443336,0.524,0.45,0,0,1,258,1
0.236733913758,0.19479044886,0.419582075792,1.18531685266,0.484,0.45,3,3,1,259,1
0.229326319169,0.0541495600406,1.09252952347,0.106489623338,0.416,0.45,2,2,2,260,1
1.14960090365,0.240306673367,0.202257491951,0.103987952042,0.421,0.45,0,0,2,261,1
0.0761994992941,0.303882904272,1.07338631092,-0.0973278667349,0.45,0.45,2,2,1,262,1
0.417869644271,0.238662901159,0.338921393759,1.14606440794,0.482,0.45,3,3,1,263,1
0.123538083365,1.07269352802,0.256456415311,0.219717783911,0.458,0.45,1,1,1,264,1
0.139592957798,0.0558134560355,1.13767451168,0.0491632319948,0.449,0.45,2,2,2,265,1
1.11605807133,0.11187807822,0.16488425522,0.128083973241,0.453,0.45,0,0,1,266,1
0.0851907575905,0.124553456798,0.692317892874,1.03948116821,0.533,0.45,3,3,1,267,1
0.538356833318,1.02180806001,0.266333980149,0.0992473985606,0.48,0.45,1,1,1,268,1
1.05795361576,0.160571075274,0.186368963352,0.000397482661322,0.408,0.45,0,0,2,269,1
0.207964136992,1.04295892082,0.413702723722,-0.0170679915323,0.456,0.45,1,1,1,270,1
0.286440932257,0.305994551271,0.376528547247,1.02763635367,0.426,0.45,3,3,2,271,1
0.185722689328,0.0686540382179,1.01770826842,-0.0710153838233,0.397,0.45,2,2,2,272,1
0.262532629463,0.328690939791,0.808275607831,1.01011716845,0.608,0.45,3,3,1,273,1
1.09863577675,0.326638880014,0.223672062525,0.0304689190925,0.372,0.45,0,0,2,274,1
0.140204619157,0.150104650765,1.15494817074,-0.0481037848228,0.337,0.45,2,2,2,275,1
0.282315421062,1.10013681434,0.605607842466,-0.0116489262262,0.393,0.45,1,1,2,276,1
0.100918618986,1.05052455811,0.158188726222,0.150296504765,0.421,0.45,2,1,-1,277,1
1.05603358665,0.357193893632,0.13226306793,-0.0246651573699,0.43,0.45,0,0,2,278,1
0.107538396385,1.09101002384,0.0987198557646,-0.0584086182342,0.336,0.45,1,1,2,279,1
0.280864736483,0.220579339444,0.287793926167,1.01821170292,0.321,0.45,3,3,2,280,1
1.01241316975,0.484946834457,0.163307039296,0.0149140150188,0.404,0.45,0,0,2,281,1
0.294392460121,0.32181344948,0.657364060612,1.07858761585,0.448,0.45,3,3,2,282,1
0.22880102983,1.08338561033,0.481128303555,-0.0396769746014,0.327,0.45,1,1,2,283,1
1.06976613152,0.1645957611,0.228012330909,0.0327372788671,0.377,0.45,0,0,2,284,1
0.146785669375,1.00384947636,0.200750530961,-0.0149848693181,0.372,0.45,2,1,-1,285,1
0.126264317192,1.03228418209,0.0698119532457,-0.0205361655716,0.367,0.45,1,1,2,286,1
0.162045440342,0.357690324154,1.08253759251,-0.00457738383571,0.483,0.45,2,2,1,287,1
0.273464023261,0.116042917733,0.211957459608,1.1779307427,0.474,0.45,3,3,1,288,1
0.148924659226,0.561011312137,1.02457136665,-0.0303768195369,0.504,0.45,2,2,1,289,1
1.1093157363,0.136626823527,0.136292394412,0.0791304207564,0.438,0.45,0,0,2,290,1
0.386605712146,0.11014915105,0.436459317654,1.17321795684,0.507,0.45,3,3,1,291,1
0.817401063388,1.10938608079,0.233577638483,0.134800438527,0.442,0.45,1,1,2,292,1
0.24099368042,0.201273456569,0.284549369957,1.06272091015,0.439,0.45,3,3,2,293,1
1.08371614457,0.126798413645,0.211362914583,0.137266700652,0.415,0.45,0,0,2,294,1
0.140993782663,1.02976760635,0.177881740281,0.0370083808523,0.364,0.45,1,1,2,295,1
1.04069991432,0.233551608139,0.188767640139,0.0755215727957,0.442,0.45,0,0,2,296,1
0.173239099455,0.57146241213,1.05922955871,0.0386611455494,0.448,0.45,2,2,2,297,1
0.287504819928,1.00371300874,0.163908353937,0.0906974789923,0.462,0.45,1,1,1,298,1
0.136988735101,0.124734297483,1.05062307796,0.0218485870537,0.412,0.45,2,2,2,299,1
0.302616858791,0.0942444911452,0.192446322159,1.00921538392,0.44,0.45,3,3,2,300,1
0.179056499795,0.0889975617124,1.0510741085,-0.031435208962,0.52,0.45,2,2,1,301,1
1.0762139524,0.121862278827,0.155591818874,0.0882480414891,0.394,0.45,0,0,2,302,1
0.122110155131,1.15176563475,0.194570026651,0.0350118531415,0.281,0.45,1,1,2,303,1
0.31704580131,0.175255113047,0.361969018404,1.02755003242,0.4,0.45,3,3,2,304,1
1.10790369464,0.217962925644,0.22859721474,0.0339622076683,0.439,0.45,0,0,2,305,1
0.0884036010072,0.184368613387,1.0541449125,0.0113730771989,0.364,0.45,3,2,-1,306,1
0.161555277009,1.1296677005,0.103999972047,0.13112696591,0.325,0.45,1,1,2,307,1
0.149313098006,0.0890470849688,1.1202164144,0.0930763643029,0.488,0.45,2,2,1,308,1
0.403667211344,0.196492383673,0.161656940929,1.10734593882,0.446,0.45,3,3,2,309,1
0.169304355614,1.09264715675,0.21433817082,0.101795241216,0.422,0.45,2,1,-1,310,1
0.133849171569,1.05383248094,0.0941510194278,0.0465968415,0.397,0.45,1,1,2,311,1
1.10073726149,0.191769710945,0.169392132156,0.0543615766694,0.362,0.45,0,0,2,312,1
0.165851686017,0.13347402681,1.00416887341,-0.00748103657605,0.364,0.45,2,2,2,313,1
0.436198191473,0.321185491558,0.271558020058,1.10647389613,0.396,0.45,3,3,2,314,1
0.464361515439,1.03910889696,0.209326209526,0.0989078506698,0.36,0.45,1,1,2,315,1
1.06324951946,0.217105692708,0.241014035766,0.1217163111,0.344,0.45,0,0,2,316,1
0.23536542363,0.184687000148,0.500979168091,1.00772461261,0.471,0.45,3,3,1,317,1
1.10045140617,0.213068968697,0.20166639912,0.0456307127739,0.453,0.45,0,0,1,318,1
0.112023512503,1.08032256302,0.125111119174,0.014631587828,0.354,0.45,1,1,2,319,1
0.141092525963,0.0598884752003,1.07807072401,-0.0045894770306,0.319,0.45,2,2,2,320,1
1.08816965138,0.122431354111,0.108662071103,0.061869829932,0.343,0.45,0,0,2,321,1
0.195632497187,0.107706732833,1.06232876248,-0.0272869881027,0.436,0.45,2,2,2,322,1
0.171066760042,1.09837239476,0.14760540732,0.0631299046864,0.405,0.45,1,1,2,323,1
0.423969404499,0.230110332164,0.387020366921,1.1405777634,0.423,0.45,3,3,2,324,1
0.163379617613,1.05712026722,0.197634670253,0.106397714228,0.329,0.45,2,1,-1,325,1
0.379195845696,0.066364241062,0.461997162602,1.07179813595,0.545,0.45,3,3,1,326,1
0.463239924815,1.01244902667,0.146114718989,0.0597532583256,0.397,0.45,1,1,2,327,1
1.03783755304,0.101850935979,0.224096046304,0.0374390827155,0.387,0.45,0,0,2,328,1
0.220761131827,1.07437562354,0.198612299744,-0.0445449199447,0.4,0.45,1,1,2,329,1
0.416149418513,0.0964876299692,0.445328648563,1.06206438444,0.422,0.45,3,3,2,330,1
1.04137524689,0.122735806307,0.108728658433,-0.0660828472669,0.348,0.45,0,0,2,331,1
0.0958143101553,0.132215760006,1.12320663522,-0.123258908264,0.345,0.45,2,2,2,332,1
0.173257893179,1.24872200863,0.208222219992,-0.0181249183547,0.369,0.45,1,1,2,333,1
0.33885339645,0.142700720983,1.00443928033,0.0498131606262,0.332,0.45,2,2,2,334,1
1.1338583057,0.229358653297,0.164464515505,0.00682178311645,0.31,0.45,0,0,2,335,1
0.409271204992,0.260589655981,0.207465411513,1.12675209304,0.303,0.45,3,3,2,336,1
0.181899181613,0.037769248184,1.16384249343,0.0825091277009,0.278,0.45,2,2,2,337,1
1.02715476904,0.139104730389,0.19080893141,0.0288653594743,0.339,0.45,0,0,2,338,1
0.598582210076,1.18472101203,0.751918006554,0.00627972244317,0.387,0.45,1,1,2,339,1
0.337286421737,0.0749416504611,1.11302724413,0.0376616943876,0.339,0.45,3,2,-1,340,1
1.29755708345,0.0492931066575,0.0564052639502,0.00773246754516,0.412,0.45,0,0,2,341,1
0.408633589791,0.27081104949,0.279134109287,1.17128997846,0.459,0.45,3,3,1,342,1
0.436788875982,1.0159625923,0.0553384090864,-0.0535235740092,0.381,0.45,1,1,2,343,1
0.222607091679,0.103335719782,1.091307192,-0.00134484261827,0.349,0.45,2,2,2,344,1
1.09893726088,0.200565267227,0.211689426208,0.0904104591221,0.312,0.45,1,0,-1,345,1
1.05930492212,0.166085008361,0.207005922698,0.00715110026193,0.341,0.45,0,0,2,346,1
0.213358701466,0.253842046994,1.11841525941,0.188692778302,0.369,0.45,2,2,2,347,1
0.373325860731,0.296285066896,0.255795540766,1.10618316124,0.359,0.45,3,3,2,348,1
0.345883067482,0.278167148179,1.10901572839,-0.0623030611789,0.375,0.45,2,2,2,349,1
0.838814714557,1.04518091968,0.215837013023,0.0743302709742,0.381,0.45,1,1,2,350,1
1.00762721682,0.168011109022,0.238523682881,0.00804217548093,0.324,0.45,0,0,2,351,1
0.200568237734,0.147544641868,0.606797281351,1.25592036629,0.485,0.45,3,3,1,352,1
0.328509632138,1.09861723774,0.0991297484256,0.0564353240731,0.387,0.45,1,1,2,353,1
0.273294006696,0.113513224251,1.02397644533,0.0194945946408,0.383,0.45,3,2,-1,354,1
1.17692913364,0.179716133898,0.0783534564365,0.0397027062767,0.37,0.45,0,0,2,355,1
0.267966783004,0.0930826368555,1.08567807813,0.000472142780897,0.385,0.45,2,2,2,356,1
0.272034849462,0.203749106636,0.282450986187,1.0754215067,0.614,0.45,3,3,1,357,1
0.162793666449,1.13216175267,0.0660125374332,0.0337604018299,0.422,0.45,2,1,-1,358,1
1.0351720102,0.155817518944,0.18320335439,0.0733649092671,0.369,0.45,0,0,2,359,1
0.0834316672855,1.0927063396,0.210847690399,0.0656032307542,0.473,0.45,1,1,1,360,1
0.252303699743,0.0483369979722,1.13381849113,-0.0998612245066,0.433,0.45,2,2,2,361,1
1.16880098389,0.109180060851,0.099302627665,0.138648253565,0.448,0.45,0,0,2,362,1
0.109623021626,1.0105813055,0.160714244202,0.000716325381585,0.447,0.45,1,1,2,363,1
0.205125236624,0.188235529649,0.296342115044,1.10318898114,0.463,0.45,3,3,1,364,1
0.360232051744,1.05617835201,0.0599699226443,0.0210090680031,0.409,0.45,1,1,2,365,1
1.15727361956,0.170927298355,0.11543105524,0.082595870465,0.394,0.45,0,0,2,366,1
0.15392269865,0.177967696242,0.214974844543,1.10530784909,0.377,0.45,3,3,2,367,1
1.18559847848,0.112704265438,0.0491321992706,0.267852263755,0.41,0.45,0,0,2,368,1
0.131386075186,0.124987199252,1.08150619101,-0.0371612248017,0.414,0.45,2,2,2,369,1
1.10504170647,0.175499596759,0.101829143998,0.00919754243015,0.46,0.45,1,0,-1,370,1
0.0998396133022,0.0880552085846,1.00411886402,-0.0292505881221,0.495,0.45,2,2,1,371,1
0.415777631301,0.0716143372438,0.300289738579,1.14329266732,0.403,0.45,3,3,2,372,1
1.01144478899,0.102753766883,0.158245401126,0.109700260345,0.417,0.45,2,0,-1,373,1
1.00069033275,0.0673716364027,0.0993911629401,0.00986584447304,0.319,0.45,1,0,-1,374,1
0.48990086058,0.0435679297382,0.255330628287,1.10806905068,0.394,0.45,3,3,2,375,1
1.34490347897,0.0761785559275,0.0889987260502,-0.0090973958817,0.295,0.45,0,0,2,376,1
0.132573841434,1.02006223984,0.156075618776,-0.00308269280139,0.323,0.45,1,1,2,377,1
1.36916058843,0.0980230163415,0.0925218144208,0.0614533278671,0.367,0.45,0,0,2,378,1
0.198941454307,0.0940137329881,1.00158348962,0.138787261646,0.365,0.45,3,2,-1,379,1
0.308759136701,1.02000925141,0.0384694324508,-0.0215223333944,0.336,0.45,1,1,2,380,1
0.161629293262,1.14732626746,0.0806698370167,0.0917871811295,0.404,0.45,2,1,-1,381,1
0.469170919928,0.162173635607,0.321941896715,1.12049673226,0.436,0.45,3,3,2,382,1
0.258175791489,0.0757019609816,1.11902171982,-0.0365128981986,0.417,0.45,2,2,2,383,1
1.37227810717,0.0922810706113,0.216303485359,0.0840156080254,0.478,0.45,0,0,1,384,1
0.234796672322,0.137350468649,1.0144967065,-0.0280196520608,0.447,0.45,2,2,2,385,1
0.346626321632,0.311297849088,0.510043433528,1.1034690614,0.612,0.45,3,3,1,386,1
0.415678210636,1.19931090447,0.110941182884,0.00354496082077,0.576,0.45,1,1,1,387,1
1.06814115839,0.284221200406,0.262192371032,0.0216433240346,0.65,0.45,0,0,1,388,1
0.108122709482,1.01018074362,0.20865820445,-0.0511752571077,0.512,0.45,1,1,1,389,1
0.42837887914,0.0177086008151,0.517737166033,0.873046266326,0.7,0.45,3,-1,0,391,1
0.47383903012,0.0173699620578,0.563955065095,1.01587999493,0.0280000000002,0.45,0,3,-1,391,1
0.740678659076,0.585612306974,0.606817071663,1.00417721057,0.699,0.45,3,3,1,392,1
0.293413451166,0.186640336452,1.06161182984,0.101620009455,0.7,0.45,2,-1,0,394,1
0.293413451166,0.186640336452,1.06161182984,0.101620009455,0.00600000000022,0.45,1,2,-1,394,1
1.16451905787,0.258937453928,0.171657890331,0.0823042902437,0.16,0.45,2,0,-1,395,1
1.10245076301,0.320162397819,0.274811332447,0.0620202090892,0.594,0.45,0,0,1,396,1
0.140848982596,0.241194698926,1.02464981617,-0.0431134340915,0.46,0.45,2,2,1,397,1
0.394464762824,0.323560652258,0.208848803571,1.10726709601,0.408,0.45,3,3,2,398,1
0.320526873104,1.08155563507,0.0979594144604,0.152676251129,0.402,0.45,0,1,-1,399,1
0.300988979275,1.12213158802,0.254573213494,0.0854879480575,0.394,0.45,1,1,2,400,1
1.24757657005,0.17049036518,0.188241140826,0.0372798353194,0.45,0.45,0,0,1,401,1
0.268372938209,0.425935327285,0.318342094016,1.02453497253,0.521,0.45,3,3,1,402,1
0.407188367172,1.18741842671,0.0916130110495,0.0409401493179,0.481,0.45,1,1,1,403,1
0.37522895397,0.4505412151,0.42034464392,1.08255844666,0.531,0.45,3,3,1,404,1
0.282441985057,0.252370380511,1.07576885219,-0.0697945556775,0.516,0.45,2,2,1,405,1
1.06229018371,0.258499560856,0.172125363233,0.0623454957338,0.438,0.45,0,0,2,406,1
0.319178141149,0.224935640611,1.13174356972,-0.0644791591006,0.467,0.45,2,2,1,407,1
1.10639736845,0.658705633337,0.155744676591,0.0859243264002,0.457,0.45,1,0,-1,408,1
0.0461575851553,0.0555575888367,1.11010877223,-0.0247105192513,0.405,0.45,2,2,2,409,1
0.340921697547,0.0599406718905,0.165054876475,1.16561900832,0.397,0.45,3,3,2,410,1
0.371388149491,1.08185098349,0.0807294696564,0.104858249342,0.361,0.45,1,1,2,411,1
1.13974374925,0.235760936694,0.280602092855,0.0889769378379,0.385,0.45,0,0,2,412,1
0.157615843422,0.0837954429772,1.04697672637,-0.0142561887854,0.398,0.45,3,2,-1,413,1
1.11199415045,0.238493504884,0.0444874070426,0.0613662356124,0.368,0.45,0,0,2,414,1
0.148754947789,1.427460318,0.0855740039305,-0.0250783113069,0.385,0.45,1,1,2,415,1
0.302013310526,0.198645481604,1.12237024128,0.0197245888457,0.432,0.45,2,2,2,416,1
1.1840109745,0.13526164952,0.138724741102,0.0990448438183,0.377,0.45,0,0,2,417,1
0.247956532091,0.757159672199,1.01823713483,-0.00164492791922,0.434,0.45,2,2,2,418,1
0.239832506016,1.22724979522,0.1010341747,0.0831794268765,0.346,0.45,1,1,2,419,1
0.307012833773,0.0619635170301,0.220239985865,1.23916052758,0.394,0.45,3,3,2,420,1
0.322661338104,0.0979423591393,1.09438887005,0.0142858893756,0.344,0.45,2,2,2,421,1
1.03076275772,0.0952809761203,0.131409383614,0.0608713729728,0.238,0.45,0,0,2,422,1
0.274492600497,0.182656701338,1.03039974038,0.00366894208457,0.301,0.45,1,2,-1,423,1
0.264926270798,0.166123862193,0.280923787188,1.06156200334,0.476,0.45,3,3,1,424,1
0.420773425612,1.01991332975,0.0414657880212,0.0512087676202,0.384,0.45,1,1,2,425,1
1.03190047102,0.112993563181,0.145151888386,0.109276964931,0.317,0.45,0,0,2,426,1
0.265106238234,0.255537106008,0.301673073088,1.02911775359,0.393,0.45,3,3,2,427,1
1.26595034232,0.320690705319,0.170043858107,0.00481323830971,0.41,0.45,0,0,2,428,1
0.070234749485,0.135587553286,1.07927556762,-0.0412520250693,0.364,0.45,2,2,2,429,1
0.498970912961,0.401061799062,0.765716246723,1.01941285689,0.444,0.45,3,3,2,430,1
0.376165483358,0.488296609564,1.20386708397,-0.0180572288756,0.414,0.45,2,2,2,431,1
0.709275211095,1.05646143173,0.215760153494,0.0727040471239,0.388,0.45,1,1,2,432,1
0.143855424022,0.0630140020921,1.00006623329,-0.0162810392266,0.409,0.45,2,2,2,433,1
0.153299175315,0.298394219165,1.09634824043,-0.167909958436,0.519,0.45,2,2,1,434,2
0.963456907802,1.17380929864,0.250886554693,0.0627409782242,0.655,0.45,0,1,-1,435,2
0.103424049077,1.05874020705,0.500583551281,-0.0488434672138,0.581,0.45,1,1,1,436,2
0.348042250083,0.284271798677,0.62990695264,1.20261613028,0.539,0.45,3,3,1,437,2
0.190604603721,1.09440305975,0.157968077893,-0.040863096304,0.43,0.45,1,1,2,438,2
1.01713886597,0.254271216406,0.259007196365,-0.0185245986566,0.394,0.45,0,0,2,439,2
0.406324078086,0.411483490956,0.765753033445,1.05035776909,0.493,0.45,3,3,1,440,2
0.33046664564,0.167305099281,1.06404298749,-0.00414135412095,0.456,0.45,2,2,1,441,2
0.187256524056,1.18569890251,0.248467158409,-0.00674355001008,0.442,0.45,1,1,2,442,2
0.184776414341,0.128850613736,1.05334074193,-0.143127156553,0.43,0.45,2,2,2,443,2
0.267355037036,0.10344743014,1.02325728801,0.0196192286701,0.402,0.45,3,2,-1,444,2
1.09906214108,0.438186860913,0.123411735546,0.0403389640801,0.366,0.45,0,0,2,445,2
0.116960571557,0.0937767893453,1.07230793683,-0.0681636448497,0.377,0.45,2,2,2,446,2
0.530646121104,0.391525861259,0.541100165868,1.09304734957,0.427,0.45,3,3,2,447,2
0.560754173717,1.00699083338,0.387875491011,-0.0193495798063,0.419,0.45,1,1,2,448,2
1.37303675957,0.10350634162,0.0710744019481,-0.0122416759,0.514,0.45,0,0,1,449,2
0.322152172994,0.265721220981,0.201137298561,1.02340934099,0.454,0.45,3,3,1,450,2
1.13456427609,0.1104740517,0.0481355579769,0.121336810173,0.377,0.45,0,0,2,451,2
0.437783906641,1.25523016575,0.520238751645,0.0132650895802,0.377,0.45,1,1,2,452,2
0.151708140448,0.0729446633767,1.15817955727,-0.0176359323928,0.36,0.45,3,2,-1,453,2
0.343694906319,0.120150335167,1.32403039059,-0.103792211194,0.424,0.45,2,2,2,454,2
0.220923306651,1.07279067121,0.121135336762,0.0403120660764,0.396,0.45,1,1,2,455,2
0.18175430659,0.0680464681518,1.06085455797,-0.113772412434,0.433,0.45,2,2,2,456,2
1.0451608046,0.15513255938,0.159413171933,0.0760357254212,0.331,0.45,0,0,2,457,2
0.203482610239,0.145887257462,1.00378823914,-0.00900031693273,0.441,0.45,2,2,2,458,2
1.10999739174,0.227385629765,0.222325016972,0.153365533108,0.379,0.45,0,0,2,459,2
0.412017893818,1.12179988773,0.24410831703,0.256128317654,0.368,0.45,1,1,2,460,2
0.279939842989,0.268799075658,0.429829655571,1.21768315002,0.418,0.45,3,3,2,461,2
1.14351388882,0.1995167809,0.111874615649,-0.0443033092936,0.293,0.45,0,0,2,462,2
0.255440038161,0.150002921209,1.28846900603,-0.0550292022906,0.321,0.45,3,2,-1,463,2
0.50306230188,1.03475297071,0.529519093825,0.0247204599377,0.376,0.45,1,1,2,464,2
0.150340258378,0.0576895636486,1.2731491093,-0.0239170175046,0.308,0.45,2,2,2,465,2
1.30969839672,0.208133737267,0.30273491877,0.0416003937452,0.203,0.45,1,0,-1,466,2
0.195628117519,1.1784236185,0.155299420929,-0.0767429089675,0.234,0.45,0,1,-1,467,2
1.08852567624,0.0461360974747,0.174171676352,-0.037564287206,0.158,0.45,2,0,-1,468,2
0.485177928415,0.250246227053,0.559974698833,1.04623711185,0.687,0.45,3,3,1,469,2
0.521227997481,0.190426772652,1.01087695031,0.000739730561319,0.584,0.45,2,2,1,470,2
0.14365351828,1.08442184921,0.208173059949,-0.0671457301628,0.525,0.45,1,1,1,471,2
0.317691954689,0.360066378085,0.673348483874,1.15368395764,0.554,0.45,3,3,1,472,2
1.00960253054,0.216351549772,0.171999482124,0.00202072702797,0.405,0.45,0,0,2,473,2
0.144003888538,1.05802261235,0.156168200848,-0.0434534818451,0.435,0.45,1,1,2,474,2
1.02045160759,0.157446285541,0.235581471317,0.0163864914463,0.509,0.45,0,0,1,475,2
0.583852375888,0.835655709288,0.793029222335,1.08353390937,0.56,0.45,3,3,1,476,2
0.142987298363,0.0386732037821,1.17294094839,-0.126433164348,0.471,0.45,2,2,1,477,2
1.05464937198,0.202414194403,0.199504719048,0.0297025484822,0.401,0.45,0,0,2,478,2
0.139342209319,0.0851159574948,1.14915093061,-0.0729986707521,0.345,0.45,2,2,2,479,2
0.404406878849,0.0883362425934,0.410887833353,1.03756614869,0.401,0.45,3,3,2,480,2
0.474256133602,1.32399141824,0.749302413909,0.0959776653396,0.377,0.45,1,1,2,481,2
0.381885014572,0.0774259766933,1.10579268935,0.00360384209373,0.447,0.45,2,2,2,482,2
0.42840688026,0.213040500342,0.50507148527,1.03894814446,0.473,0.45,3,3,1,483,2
1.00307179104,0.664809253307,0.169015509606,-0.0712801917622,0.367,0.45,0,0,2,484,2
1.30702770783,0.146044057677,0.458507701712,-0.0175346711792,0.37,0.45,1,0,-1,485,2
0.297077328512,0.287682793207,0.682080852226,1.14727270149,0.427,0.45,3,3,2,486,2
0.536236777041,1.29071213251,0.537066678602,0.00866718883969,0.369,0.45,1,1,2,487,2
1.2124069719,0.145106168783,0.41222083947,0.0479524311234,0.319,0.45,0,0,2,488,2
0.161181652949,0.0997510947991,1.14868257216,-0.0407010148665,0.312,0.45,2,2,2,489,2
0.29367474406,1.1911840882,0.200444002985,0.100337390957,0.344,0.45,1,1,2,490,2
0.35407247465,0.799357988969,1.15995472919,0.124895656533,0.392,0.45,2,2,2,491,2
1.14561807181,0.327329400771,0.332893737132,0.136771430625,0.358,0.45,0,0,2,492,2
0.418143101747,0.350111564104,0.518609085307,1.15768212918,0.391,0.45,3,3,2,493,2
0.138314730861,0.0630953981905,1.1735214886,-0.0270303970447,0.364,0.45,2,2,2,494,2
1.07438915083,0.333550824508,0.264043759504,0.0695793277702,0.314,0.45,1,0,-1,495,2
0.251090844733,0.0693835348093,1.00418035845,0.17858626388,0.421,0.45,3,2,-1,496,2
1.16267838368,0.0565632609661,0.22805527527,-0.0658118088023,0.359,0.45,0,0,2,497,2
0.160686267871,0.14852799294,0.54783041792,1.29118162638,0.505,0.45,3,3,1,498,2
0.480143207908,1.07370225491,0.105818386933,0.0229392119251,0.363,0.45,1,1,2,499,2
1.27536694905,0.226071644255,0.28717627567,0.0696521047575,0.324,0.45,0,0,2,500,2
0.18716027445,1.11434611381,0.269278285901,0.0482298063872,0.324,0.45,1,1,2,501,2
0.146111194587,0.0670375601718,1.18771867278,0.0157533257207,0.291,0.45,2,2,2,502,2
1.04650229077,0.315661836315,0.214785498785,0.0948101586283,0.357,0.45,0,0,2,503,2
0.189063265674,0.197942256368,1.03408561039,-0.0600313062929,0.291,0.45,2,2,2,504,2
0.415082619938,0.0613978666972,0.476430738695,1.08621295401,0.389,0.45,3,3,2,505,2
0.290267540443,1.08884393763,0.174776266451,0.087571545629,0.363,0.45,2,1,-1,506,2
1.36482308798,0.169269625153,0.148817521462,0.0754234299505,0.323,0.45,0,0,2,507,2
0.166537179384,1.00104528396,0.200250761442,0.0375693916085,0.261,0.45,1,1,2,508,2
0.40377207958,0.171580795095,0.513524186622,1.28366862335,0.357,0.45,3,3,2,509,2
0.290890831647,1.10924909404,0.159235326928,0.0578518926287,0.299,0.45,0,1,-1,510,2
0.314760703261,0.27554799596,0.616214451238,1.01120780125,0.324,0.45,3,3,2,511,2
0.321173938798,0.408156573047,1.01850107447,-0.033404260801,0.281,0.45,1,2,-1,512,2
1.25607641714,0.168438656599,0.0387679461288,0.0969685777757,0.221,0.45,0,0,2,513,2
0.327801148441,1.20948716649,0.039041464842,0.00959537321414,0.259,0.45,2,1,-1,514,2
0.244737106264,0.18162314096,0.383041073079,1.15356981501,0.445,0.45,3,3,2,515,2
0.30734555121,1.02999649922,0.0573398421848,-0.0645421234535,0.315,0.45,2,1,-1,516,2
0.624553079245,1.24466070861,0.0590308302265,0.025412140663,0.291,0.45,1,1,2,517,2
0.193731799336,0.0728037584048,1.09382014132,0.20879643833,0.408,0.45,2,2,2,518,2
0.45917729878,0.0509440816998,0.357673473315,1.1863320308,0.441,0.45,3,3,2,519,2
1.1089453395,0.0532910196122,0.0625492645341,-0.0123820418458,0.322,0.45,1,0,-1,520,2
1.01508764768,0.1522863706,0.0772963590137,-0.00618624150248,0.356,0.45,0,0,2,521,2
0.292728123656,0.150412498796,0.683675920485,1.07577138246,0.434,0.45,3,3,2,522,2
0.355329454656,1.16044559517,0.185016289368,0.0573537362972,0.363,0.45,0,1,-1,523,2
0.214851078378,1.13278694595,0.293149760416,-0.0355238155156,0.481,0.45,1,1,1,524,2
0.150036169607,0.0312487536953,0.612264944069,1.10577865429,0.455,0.45,3,3,1,525,2
0.174538713636,0.187714508369,1.13793776389,-0.0297368468803,0.439,0.45,2,2,2,526,2
1.23672358097,0.111446270161,0.0464207353249,-0.00929549805741,0.358,0.45,0,0,2,527,2
0.0842775581889,0.0797341140255,1.1036013976,-0.0618944725925,0.384,0.45,2,2,2,528,2
1.00723735533,0.203142336811,0.115501845529,0.0504677378025,0.442,0.45,1,0,-1,529,2
0.0927197020851,0.132985963404,0.14406085139,0.0627807314611,0.7,0.45,2,-1,0,531,2
0.185916352984,0.197664387127,1.01952431535,0.0250816065236,0.197,0.45,3,2,-1,531,2
1.02865032423,0.21172514301,0.138015762351,0.0365762549604,0.406,0.45,0,0,2,532,2
0.921030862173,1.06726391647,0.207596509538,-0.0415584160083,0.409,0.45,1,1,2,533,2
0.368586655989,0.318703710524,0.281011571343,1.058613921,0.425,0.45,3,3,2,534,2
0.146096974099,1.13068160807,0.132810286329,-0.00659400878369,0.392,0.45,1,1,2,535,2
1.23343374879,0.144090319592,0.210597809307,0.0275652986394,0.348,0.45,0,0,2,536,2
0.226442138297,0.222461288841,0.424285582178,1.08930632814,0.442,0.45,3,3,2,537,2
0.259171985267,0.156346346721,1.02383296206,-0.0745870677552,0.458,0.45,2,2,1,538,2
1.25754897792,0.388050342252,0.141326965668,0.0216092763398,0.402,0.45,0,0,2,539,2
0.208847732019,0.129158309702,1.17488594448,-0.05522036581,0.367,0.45,2,2,2,540,2
0.551016389395,1.26586145939,0.0829191528711,0.0327941672286,0.346,0.45,1,1,2,541,2
0.191781129339,0.116951374976,1.04196684531,-0.0375279152659,0.438,0.45,2,2,2,542,2
0.386958775384,0.134771806817,0.241705815387,1.10776336173,0.603,0.45,3,3,1,543,2
0.463271012462,1.19285090467,0.0820346972761,0.0202881398103,0.466,0.45,1,1,1,544,2
1.25664961276,0.241439771346,0.223385770512,0.0296108780618,0.425,0.45,0,0,2,545,2
0.359940031359,0.406712652514,0.422397234539,1.11081041069,0.495,0.45,3,3,1,546,2
1.02120919821,0.304398637099,0.214095018186,0.0610404598048,0.429,0.45,0,0,2,547,2
0.168880638137,1.05525594753,0.219637954043,0.0175632943891,0.41,0.45,1,1,2,548,2
0.22105475882,1.08628621459,0.719510765939,0.0645538611584,0.388,0.45,2,1,-1,549,2
1.28144408901,0.0796946018518,0.160431014153,0.0957447404079,0.368,0.45,0,0,2,550,2
0.21258540807,0.0865890200115,1.17456103675,-0.00285815969086,0.367,0.45,2,2,2,551,2
0.113669223086,1.27280039833,0.107776603088,0.0857117438547,0.312,0.45,1,1,2,552,2
0.528117563287,0.230703361082,0.568183982627,1.35920666543,0.399,0.45,3,3,2,553,2
0.11044150699,1.10619209693,0.150247738417,0.0483185835556,0.372,0.45,2,1,-1,554,2
0.394934231556,0.0634363678507,0.468653843376,1.1203595263,0.55,0.45,3,3,1,555,2
1.00553327042,0.145704378612,0.192735781818,0.106182653357,0.371,0.45,0,0,2,556,2
0.163934345061,1.07348625888,0.574078414341,0.00160200255921,0.363,0.45,1,1,2,557,2
0.395443554322,0.156788197506,0.735804913958,1.0597256483,0.382,0.45,3,3,2,558,2
0.321489386294,1.19672001357,0.0995643001493,0.116141644111,0.3,0.45,1,1,2,559,2
1.09278561815,0.109429073133,0.168857644675,0.0326618443478,0.261,0.45,0,0,2,560,2
0.166148746504,0.0900541738186,1.08924066974,0.0293665866243,0.308,0.45,2,2,2,561,2
0.69726604845,1.08065339983,0.515002267721,0.0820300687023,0.362,0.45,1,1,2,562,2
0.0873411690123,0.0797488481498,1.02170088232,-0.0236959222301,0.54,0.45,2,2,1,563,2
1.08573210341,0.228228111833,0.0623968647341,0.0628937014687,0.404,0.45,0,0,2,564,2
0.400238764478,0.198355329388,0.54401525497,1.18913943291,0.501,0.45,3,3,1,565,2
0.216897431231,1.10157926112,0.0403330880063,-0.0123699699781,0.317,0.45,2,1,-1,566,2
0.188763792784,1.18395015414,0.0936961302061,0.0803099626674,0.314,0.45,1,1,2,567,2
0.453594416196,0.130347365919,0.291070803179,1.35643542649,0.425,0.45,3,3,2,568,2
1.00320017102,0.623854215447,0.0662294375827,0.0147960162379,0.383,0.45,0,0,2,569,2
0.154991736966,0.0715336259404,1.15643218186,0.000125164087071,0.326,0.45,3,2,-1,570,2
0.892717177769,1.00086715356,0.0398301131367,-0.0214644602738,0.323,0.45,1,1,2,571,2
1.30881260975,0.057742935668,0.0404231963243,0.0582495145189,0.363,0.45,0,0,2,572,2
0.163719777501,0.0636481727008,1.06563962818,-0.0414773888958,0.355,0.45,2,2,2,573,2
1.42373390035,0.0811251512033,0.0583720293722,0.043009333826,0.316,0.45,0,0,2,574,2
0.151780795495,1.12172422899,1.02951090348,0.053140263405,0.433,0.45,1,1,2,575,2
0.169599291432,0.0396781955961,1.28814096584,0.0597904320711,0.367,0.45,2,2,2,576,2
0.4858644185,0.0930266205936,0.390775414568,1.2187331202,0.497,0.45,3,3,1,577,2
0.353707521064,1.09169286543,0.0603209887252,0.0234324132909,0.441,0.45,2,1,-1,578,2
1.1654473216,0.0734468444947,0.0342467722887,0.0352884213627,0.437,0.45,3,0,-1,579,2
0.104117494924,1.21561265391,0.0482353786605,-0.0427798045574,0.454,0.45,1,1,1,580,2
1.17091324097,0.0923249995426,0.0978886222326,0.0992544740336,0.451,0.45,0,0,1,581,2
0.465034913029,1.09613147456,0.0593290238768,0.0264733421037,0.466,0.45,1,1,1,582,2
0.506156729256,0.232476551859,0.157778680973,1.08415624192,0.46,0.45,3,3,1,583,2
1.11583990566,0.226288850459,0.181196740002,0.0396865060524,0.571,0.45,0,0,1,584,2
0.175593525351,0.153019152247,1.08426158901,0.0228753185343,0.457,0.45,2,2,1,585,2
1.12336683057,0.208161140787,0.198980868003,0.0800085811282,0.433,0.45,0,0,2,586,2
0.406062969008,0.525983238575,0.480110624192,1.01722827166,0.455,0.45,3,3,1,587,2
0.202141096799,1.08274132164,0.152714629851,-0.0035502279178,0.41,0.45,2,1,-1,588,2
0.210255114759,1.14840589974,0.19218303682,0.0393439142961,0.521,0.45,1,1,1,589,2
0.203423622167,0.0543332521803,1.14443057595,-0.0460800444699,0.478,0.45,2,2,1,590,2
0.450141111043,0.320357543293,0.517465276382,1.04161188023,0.509,0.45,3,3,1,591,2
1.07748395074,0.138298089314,0.13376106811,0.0139742027,0.379,0.45,0,0,2,592,2
0.20045815944,1.07983623565,0.319674769906,-0.0332653575817,0.358,0.45,1,1,2,593,2
1.05843116355,0.138889928093,0.35748251139,0.0942390364936,0.523,0.45,0,0,1,594,2
0.315283110354,0.459572389106,0.489781714374,1.06644489359,0.514,0.45,3,3,1,595,2
0.232985811718,1.00557168836,0.121329473996,-0.0285312964758,0.365,0.45,1,1,2,596,2
0.182298248471,0.193917326002,1.07921174936,-0.0398553799592,0.405,0.45,2,2,2,597,2
0.488134745443,1.27177704682,0.203308102607,0.0641765117427,0.432,0.45,1,1,2,598,2
0.340334075841,0.256642662181,0.410934517246,1.02664278017,0.443,0.45,3,3,2,599,2
0.109098399781,1.15823407541,0.1616966504,-0.0291421398144,0.329,0.45,2,1,-1,600,2
1.00190631057,0.127432519762,0.212283655313,0.0666222314501,0.347,0.45,0,0,2,601,2
0.104294297453,0.0947591591081,1.12326324112,-0.0797063672386,0.316,0.45,2,2,2,602,2
0.26421610749,1.02012500927,0.615133631368,0.0286595770068,0.431,0.45,0,1,-1,603,2
0.264591666506,1.00152797049,0.478151872588,-0.0468290559388,0.458,0.45,1,1,1,604,2
0.315559975563,0.417490108795,0.613480636263,1.10550383202,0.432,0.45,3,3,2,605,2
1.18742200024,0.241224933593,0.0961418630238,0.0150464970521,0.418,0.45,0,0,2,606,2
0.0717856904502,0.0894960587893,1.0082510856,-0.0246878793381,0.344,0.45,3,2,-1,607,2
0.0780037770429,1.17175468535,0.168114683084,0.00748062526208,0.381,0.45,1,1,2,608,2
0.182530664392,0.393797803071,1.02535282503,-0.0153334205568,0.433,0.45,2,2,2,609,2
0.393526917005,0.175372005722,0.322084558538,1.07732987147,0.454,0.45,3,3,1,610,2
0.128583718667,0.0899026145605,1.03620105763,-0.0523084467434,0.458,0.45,2,2,1,611,2
0.119830508603,1.03535931666,0.102281623681,-0.0125205383301,0.43,0.45,1,1,2,612,2
1.17831441915,0.135655692105,0.25623797225,0.0539022656676,0.37,0.45,0,0,2,613,2
0.207867389885,0.124491707058,1.06389845304,-0.163226560924,0.36,0.45,2,2,2,614,2
1.05987484025,0.271580518941,0.157741258267,0.0979760649144,0.395,0.45,1,0,-1,615,2
1.00719546609,0.291064680765,0.248226761386,-0.00824907264191,0.402,0.45,0,0,2,616,2
0.5007040579,0.162936894135,0.725674280454,1.21160563318,0.398,0.45,3,3,2,617,2
0.256583606884,1.25521608063,0.442436199477,-0.0673572486906,0.392,0.45,1,1,2,618,2
0.441255420736,0.125284390872,0.498460105409,1.02737550403,0.456,0.45,3,3,1,619,2
1.21946910754,0.110749056344,0.0932836968491,-0.0433826380567,0.365,0.45,0,0,2,620,2
0.175616942025,0.0951406061163,1.05249387902,-0.118305103057,0.301,0.45,2,2,2,621,2
1.08039647784,0.292237023548,0.200039324207,0.0637511043373,0.46,0.45,0,0,1,622,2
0.170677792311,1.04490622708,0.762919102293,-0.0755593960203,0.473,0.45,1,1,1,623,2
0.0939633610391,0.0390628725896,1.00369256667,0.024470488993,0.393,0.45,2,2,2,624,2
0.364314057768,0.0607115070414,0.0912942913168,1.06884824353,0.441,0.45,3,3,2,625,2
0.133875840624,0.0727338689457,1.06692257366,0.00777195058269,0.43,0.45,2,2,2,626,2
0.306153925091,0.0658631492919,0.223597936102,1.10148886212,0.562,0.45,3,3,1,627,2
1.24119318182,0.0451515926445,0.0284591803476,0.0141849918686,0.469,0.45,0,0,1,628,2
0.0649122829373,1.15669585633,0.0400795924512,-0.0454068954238,0.387,0.45,1,1,2,629,2
0.286613202353,0.430422158092,0.228269608462,1.12441175133,0.425,0.45,3,3,2,630,2
0.107540079031,1.13839118147,0.0399188918328,0.0198841792026,0.309,0.45,1,1,2,631,2
1.0724179536,0.411313663892,0.0346091152978,0.115576071996,0.442,0.45,0,0,2,632,2
0.158835548767,0.0902263526111,1.00421948657,-0.0785600383159,0.33,0.45,2,2,2,633,2
0.105231985789,1.18120401316,0.075346601103,0.0767431686519,0.355,0.45,1,1,2,634,2
0.196712817871,0.0318924802659,1.13213237093,-0.0456885223248,0.358,0.45,2,2,2,635,2
1.13117308377,0.168681824788,0.157576960194,0.0634569902731,0.299,0.45,0,0,2,636,2
0.384858142437,0.403417184234,0.848390795231,1.07341825018,0.447,0.45,3,3,2,637,2
0.178168601917,0.0671798851152,1.06192727158,-0.0836412086989,0.384,0.45,2,2,2,638,2
0.366431100572,0.0535216901388,0.934462147167,1.02340554614,0.505,0.45,3,3,1,639,2
1.04154897145,0.434141326911,0.0646538021675,0.0480865239774,0.404,0.45,0,0,2,640,2
0.921905995121,1.39417524461,0.663830047126,0.0173967478215,0.434,0.45,1,1,2,641,2
1.12279283406,0.0422026397207,0.0511297727272,0.0450865355039,0.419,0.45,0,0,2,642,2
0.380254836109,0.269682731424,0.285785033095,1.2144645458,0.367,0.45,3,3,2,643,2
0.158614426394,1.05735169432,0.160397592107,0.0144516292978,0.373,0.45,1,1,2,644,2
0.104313337853,1.15825468181,0.06159282477,0.0421764520832,0.419,0.45,2,1,-1,645,2
0.0895015860424,1.06773388952,0.0568709219571,0.00526642208438,0.371,0.45,1,1,2,646,2
0.394338706678,0.281185176403,0.298342098888,1.10380842024,0.411,0.45,3,3,2,647,2
0.153582457518,0.111777142091,1.06792259186,-0.0220192430278,0.518,0.45,2,2,1,648,2
1.08402161635,0.463850461093,0.0491110964401,0.0978935056806,0.416,0.45,0,0,2,649,2
0.224082158626,0.0782649133783,1.10267898983,-0.00563481301194,0.293,0.45,2,2,2,650,2
0.0521450006886,0.229325564981,0.14842047847,-0.0468271245669,0.7,0.45,3,-1,0,652,3
0.0800001934858,0.213101098287,0.160370390642,-0.078985386376,0.7,0.45,0,-1,0,653,3
1.32844635789,0.170419694751,0.0895541694091,0.0246028267497,0.273,0.45,2,0,-1,653,3
0.134902069484,1.24054714853,0.691907756258,0.029937992667,0.457,0.45,1,1,1,654,3
1.14206625263,0.0860410050736,0.0753268412152,0.0900362883653,0.401,0.45,0,0,2,655,3
0.288781481263,1.02268216446,0.122523510142,0.0103272526871,0.344,0.45,1,1,2,656,3
0.413608424417,0.142714293923,1.14128902951,-0.0199177652513,0.347,0.45,2,2,2,657,3
0.370917120924,0.0768298032599,0.355532523504,1.03599338426,0.343,0.45,3,3,2,658,3
0.649840971102,1.1357268004,0.216211958725,0.100898986598,0.308,0.45,2,1,-1,659,3
1.078643195,0.0623034389776,0.111821801968,0.0354387500798,0.279,0.45,0,0,2,660,3
0.184103639474,1.07071854638,0.142215760419,0.063349245848,0.301,0.45,3,1,-1,661,3
0.187991701461,1.22243123474,0.123674546443,-0.0229186228383,0.197,0.45,1,1,2,662,3
0.277304904741,0.204119698208,0.391567584259,1.0748317127,0.294,0.45,3,3,2,663,3
0.213651783045,1.14440493549,0.0747816462606,0.0450135695861,0.305,0.45,2,1,-1,664,3
0.226456415962,1.02662696922,0.113351574544,0.0660030185639,0.355,0.45,1,1,2,665,3
1.18554223978,0.215786324793,0.204213145972,0.124946007583,0.303,0.45,0,0,2,666,3
0.851152258631,1.08496684096,0.628332832504,0.00408316195084,0.407,0.45,1,1,2,667,3
0.163876617439,0.0718981629606,1.05001340916,-0.0889203837195,0.322,0.45,2,2,2,668,3
1.06287385644,0.0367549637872,0.12687445169,0.102708211355,0.527,0.45,0,0,1,669,3
0.195054346685,0.100709714949,1.01988596851,-0.070330365391,0.423,0.45,3,2,-1,670,3
0.454323514243,1.10394042657,0.0571826004075,-0.0112124084548,0.365,0.45,1,1,2,671,3
0.289375594585,0.0592509334105,0.270394402205,1.10868961211,0.409,0.45,3,3,2,672,3
1.17934998186,0.0503386253281,0.0261377281032,0.0316405794075,0.332,0.45,0,0,2,673,3
0.188399447818,0.0875419510925,1.20158590768,-0.00174484696617,0.291,0.45,2,2,2,674,3
0.354316783406,0.109237404593,0.332644817708,1.120896723,0.421,0.45,3,3,2,675,3
1.02694463848,0.106398617805,0.0562374757181,0.0460398528362,0.331,0.45,0,0,2,676,3
0.230071562048,0.107694738478,1.06149038949,-0.0292885440806,0.314,0.45,2,2,2,677,3
1.0579694547,0.0613052414208,0.0468780408106,0.0555685805995,0.317,0.45,1,0,-1,678,3
0.141764805099,0.0498572841589,1.17620499309,0.0368937948032,0.387,0.45,2,2,2,679,3
1.28025571409,0.0539044703098,0.0764756432974,0.0899261347926,0.356,0.45,0,0,2,680,3
1.13235497783,0.304101571044,0.462628827913,0.0360368160928,0.364,0.45,1,0,-1,681,3
1.07045339852,0.128715430347,0.200662208445,0.0645306156266,0.412,0.45,0,0,2,682,3
0.121318607989,0.178992582516,0.411623714499,1.08856655646,0.402,0.45,3,3,2,683,3
0.0857446152352,1.02506263423,0.122108231675,0.0204360151946,0.296,0.45,2,1,-1,684,3
0.0544435696896,1.14560477774,0.118022134452,0.0804028035351,0.258,0.45,3,1,-1,685,3
0.122295523537,1.32111016421,0.152756232335,0.0384821383283,0.278,0.45,1,1,2,686,3
0.58947862266,0.454072609601,0.617065613157,1.06760386825,0.58,0.45,3,3,1,687,3
0.106405089141,0.125840483144,1.04464432468,-0.00244037687154,0.492,0.45,2,2,1,688,3
0.126305392397,1.07257755599,0.199904356455,0.128553692919,0.48,0.45,1,1,1,689,3
1.0734888114,0.336493246261,0.290395561592,0.11886756792,0.448,0.45,0,0,2,690,3
0.101609730644,1.13359603628,0.17770912803,-0.00620101433733,0.401,0.45,1,1,2,691,3
0.138747542973,1.07669985374,0.947510026844,-0.06309106046,0.425,0.45,2,1,-1,692,3
1.20828651035,0.317298974244,0.155526339072,0.112669894761,0.443,0.45,0,0,2,693,3
0.299708183228,0.261657949245,0.878253207618,1.0576681986,0.523,0.45,3,3,1,694,3
1.13229480008,0.133563389652,0.143942919519,0.0600847291362,0.415,0.45,0,0,2,695,3
0.0955433849803,0.185958676471,1.11482795695,0.0860000131548,0.345,0.45,2,2,2,696,3
0.224689897704,0.263333562331,0.593702243601,1.01731542166,0.537,0.45,3,3,1,697,3
0.527771664333,1.24127320514,0.10925211645,0.0360539817827,0.426,0.45,1,1,2,698,3
0.411185911062,0.275225772032,0.41425601308,1.2277814118,0.597,0.45,3,3,1,699,3
0.0923412631039,1.1540827846,0.0800670954894,0.00544228895296,0.472,0.45,1,1,1,700,3
1.06483313213,0.0964734185341,0.122243198798,0.0753881503337,0.388,0.45,0,0,2,701,3
0.117101253561,0.0676034818527,1.22241959917,-0.0202498820205,0.347,0.45,2,2,2,702,3
1.01889516252,0.321168218534,0.145628116747,0.0972858116568,0.314,0.45,1,0,-1,703,3
0.103498288488,0.12361636275,1.02377119602,-0.0584170262528,0.305,0.45,2,2,2,704,3
1.18567938329,0.112904458625,0.123157159061,0.105873566846,0.381,0.45,0,0,2,705,3
0.186278658183,0.175075950315,0.147670094883,1.08201187593,0.379,0.45,3,3,2,706,3
0.206330877655,1.13039247346,0.257464572567,0.0568470685892,0.376,0.45,0,1,-1,707,3
1.16164292907,0.394771132447,0.268576054049,0.104710313587,0.462,0.45,1,0,-1,708,3
0.0891174794087,0.0408997555491,1.00988833846,0.482063911406,0.502,0.45,3,2,-1,709,3
0.119732973533,0.104850863093,1.05865702377,-0.129529741361,0.444,0.45,2,2,2,710,3
0.191902559362,0.0740026345083,0.0569505840915,1.05972012112,0.509,0.45,3,3,1,711,3
0.122271576528,0.0582404364291,1.14801530333,-0.12140552688,0.482,0.45,2,2,1,712,3
0.110906353535,1.02549296545,0.0809640562352,0.05943641808,0.442,0.45,1,1,2,713,3
1.01855105318,0.332348990757,0.282380429498,0.111158509548,0.454,0.45,0,0,1,714,3
0.127040717289,0.0729035991173,1.07857528864,-0.0536856108687,0.421,0.45,1,2,-1,715,3
0.0831249007992,0.0831824949117,1.20348963156,0.00989467275599,0.531,0.45,2,2,1,716,3
1.18866797286,0.0657150832856,0.0390622856428,0.0205736803628,0.445,0.45,0,0,2,717,3
0.213174878448,0.227969071915,1.06566029167,0.0230358621705,0.375,0.45,2,2,2,718,3
0.461995849343,0.321596490092,0.218594749452,1.1191951179,0.422,0.45,3,3,2,719,3
1.24677863804,0.0640191128866,0.0433735510515,0.0402016703168,0.389,0.45,0,0,2,720,3
0.34205804697,0.262098701439,0.333234027438,1.27803184807,0.361,0.45,3,3,2,721,3
0.722952385804,1.16089719097,0.0924824039598,0.0223128432297,0.371,0.45,1,1,2,722,3
0.354852994875,0.16713210643,0.257434164089,1.26891818981,0.368,0.45,3,3,2,723,3
0.449937296314,1.05509024995,0.0669354459547,0.0961813917011,0.337,0.45,1,1,2,724,3
0.139650921897,0.0793843571622,1.12092938371,0.0586455668838,0.369,0.45,2,2,2,725,3
1.28869221131,0.15782594067,0.16886245268,0.0789548757873,0.35,0.45,0,0,2,726,3
0.332890694171,1.19052085474,0.533319053588,0.0867949520741,0.344,0.45,2,1,-1,727,3
1.29539809101,0.101036006117,0.0615306030523,0.0524934048101,0.313,0.45,1,0,-1,728,3
1.50503230736,0.256152796626,0.172350716047,0.0680668225857,0.696,0.45,0,0,1,729,3
0.119478532574,1.37199722006,0.55593470891,-0.0423668267836,0.541,0.45,1,1,1,730,3
0.572034674555,0.190990295318,0.938714217352,1.1111077094,0.49,0.45,3,3,1,731,3
0.247975077748,0.0285739055615,1.24575932323,-0.054914315047,0.346,0.45,2,2,2,732,3
0.494033925805,0.174054065148,0.361565284533,1.07244811847,0.594,0.45,3,3,1,733,3
1.23353790545,0.150133772817,0.0766543473556,0.0499023751353,0.465,0.45,0,0,1,734,3
0.398310063651,0.296039437808,0.87914701202,1.17499784239,0.488,0.45,3,3,1,735,3
0.341041173271,1.2523672191,0.102225354557,-0.0896294921551,0.328,0.45,1,1,2,736,3
0.365455365601,1.24069803436,0.121358641115,-0.0143171255347,0.34,0.45,0,1,-1,737,3
0.481912662062,1.1011589045,0.709363366344,0.317189192145,0.352,0.45,2,1,-1,738,3
0.274084043238,1.1074514701,0.176002187127,0.0181981409292,0.476,0.45,1,1,1,739,3
0.192444990572,0.054264814745,1.22102582367,-0.0442893053279,0.433,0.45,2,2,2,740,3
1.39468968353,0.251319017741,0.230749075825,0.0490481016475,0.353,0.45,0,0,2,741,3
0.53194554476,0.499096849902,0.541773719883,1.00233808125,0.484,0.45,3,3,1,742,3
0.232114822636,0.645883153526,1.0769838306,-0.0207034153293,0.382,0.45,2,2,2,743,3
0.496413078996,0.0804289729233,1.01088647271,0.121813601912,0.623,0.45,3,2,-1,744,3
1.33384475437,0.0934926103913,0.0714145796377,0.00962788654338,0.537,0.45,0,0,1,745,3
0.129511129504,1.30003719746,0.164825504829,0.0828613615755,0.506,0.45,1,1,1,746,3
0.633633948047,0.122880681706,0.815540883769,1.14361469128,0.492,0.45,3,3,1,747,3
1.11374263641,0.0628429018011,0.0397446702039,0.0139040612287,0.384,0.45,0,0,2,748,3
0.124506632257,0.0637298009235,1.19530972119,0.0889270307576,0.371,0.45,1,2,-1,749,3
0.105428685431,1.2874256311,0.0294134648497,0.0890043439231,0.504,0.45,2,1,-1,750,3
0.157532517356,1.37892807358,0.0670148575773,-0.0140829293533,0.506,0.45,1,1,1,751,3
1.33963994521,0.126235135668,0.067398922193,0.0324439883081,0.443,0.45,0,0,2,752,3
0.280431096363,0.0815604196161,1.19444547705,-0.0292980729382,0.383,0.45,2,2,2,753,3
0.159985650645,0.0425493924572,0.0368991790143,1.13835082615,0.555,0.45,3,3,1,754,3
0.183993805314,0.0529074981537,1.20960604161,-0.00277987493656,0.494,0.45,2,2,1,755,3
1.09458358547,0.243423098267,0.0640810751161,0.0197973612926,0.372,0.45,0,0,2,756,3
0.262180518971,0.0366301889099,0.173138894845,1.18693057686,0.491,0.45,3,3,1,757,3
0.128185200603,1.17768895715,0.0609649482318,0.0191247403656,0.369,0.45,1,1,2,758,3
0.419471738363,0.047590861222,0.248582091081,1.02711636129,0.438,0.45,3,3,2,759,3
0.390578818875,0.106899099093,1.16116356627,-0.0422882093244,0.462,0.45,2,2,1,760,3
0.365543762776,1.04587522394,0.187103876998,0.0421485337924,0.428,0.45,1,1,2,761,3
1.28197155831,0.0855081868452,0.186051958032,0.033128367419,0.414,0.45,0,0,2,762,3
0.322029385255,1.08377695632,0.206066254693,0.0327989329503,0.398,0.45,1,1,2,763,3
0.261199835575,1.28729785782,0.354092153898,0.0928590194537,0.347,0.45,2,1,-1,764,3
1.03856768731,0.204088911349,0.0334635080029,-0.00265959203376,0.472,0.45,0,0,1,765,3
0.436418523041,0.0802034657325,0.274474538848,1.06253523184,0.494,0.45,3,3,1,766,3
0.262090095194,1.28543684911,0.108545646623,-0.0619593108746,0.416,0.45,1,1,2,767,3
0.452052904412,0.0544183587321,0.227067960675,1.21451712088,0.463,0.45,3,3,1,768,3
1.26990966148,0.0675676811225,0.0190019111488,0.0773560000858,0.288,0.45,0,0,2,769,3
0.132703301816,0.0406063259997,1.02617284942,-0.0497422700797,0.326,0.45,2,2,2,770,3
0.195265857967,0.055932149183,0.0344406700434,1.36051565605,0.366,0.45,3,3,2,771,3
0.144627431078,0.0524474880258,1.1781775486,-0.0853845018207,0.377,0.45,2,2,2,772,3
0.120642257929,1.34216455021,0.0753925784876,0.0620808082905,0.289,0.45,1,1,2,773,3
1.14771140061,0.215911710516,0.18965033138,-0.0198128117562,0.3,0.45,0,0,2,774,3
0.370791163907,1.12840398252,0.103117259854,0.00862135413485,0.364,0.45,1,1,2,775,3
0.295189229984,0.0597842254645,1.23290578405,0.0109746721603,0.386,0.45,2,2,2,776,3
1.01598006105,0.0508970743146,0.132151648918,0.0177499201846,0.393,0.45,0,0,2,777,3
0.241918168188,0.0619822889368,1.20072787134,-0.00630345317476,0.37,0.45,2,2,2,778,3
0.294558674432,0.23190933007,0.224436675746,1.0963272687,0.404,0.45,3,3,2,779,3
1.07552597102,0.0838010483485,0.0608245964208,0.0145451851796,0.476,0.45,0,0,1,780,3
0.266524908307,0.0692355560801,0.192250604408,1.09759914413,0.464,0.45,3,3,1,781,3
0.387359195588,1.296006753,0.0481038904283,0.0486723197304,0.366,0.45,1,1,2,782,3
0.432737778296,0.0627082111293,0.613886326109,1.09850976815,0.477,0.45,3,3,1,783,3
0.119502642901,0.0397653559242,1.24903220095,-0.171461174737,0.42,0.45,2,2,2,784,3
0.0946143527136,1.08633631857,0.0468875876091,0.0330289528799,0.377,0.45,1,1,2,785,3
1.28961009644,0.143703622559,0.306546696242,0.0979780685462,0.388,0.45,0,0,2,786,3
0.239728230155,1.3799526059,0.16288526743,-0.043548584137,0.396,0.45,1,1,2,787,3
0.18388094569,0.0749402004685,1.14310445087,-0.044301893575,0.325,0.45,2,2,2,788,3
1.49207351884,0.0976586557826,0.103351318203,0.149239948928,0.373,0.45,0,0,2,789,3
0.183811408094,0.0776862024535,1.0159172642,-0.0378510390073,0.403,0.45,3,2,-1,790,3
0.145166649284,1.30207373488,0.042232529961,-0.0854513529963,0.41,0.45,1,1,2,791,3
0.175934595329,0.0402295416633,0.0366408137197,1.32378137792,0.408,0.45,3,3,2,792,3
1.08209426082,0.069329378778,0.0537827339197,-0.0550208706346,0.394,0.45,0,0,2,793,3
0.152646451959,0.0738246076532,1.194681156,0.0161600154986,0.399,0.45,2,2,2,794,3
0.0944672465583,0.0518508251017,0.0234242779723,1.11481150265,0.474,0.45,3,3,1,795,3
1.39307831977,0.058725685281,0.0642288070224,0.028511224091,0.543,0.45,0,0,1,796,3
0.209578449749,0.0593031499068,1.10741633286,-0.0360844686681,0.462,0.45,2,2,1,797,3
0.104003087896,1.10345203585,0.0363127104745,0.0412716915272,0.41,0.45,1,1,2,798,3
0.287286402007,0.0824425376229,0.691511507348,1.0609104365,0.51,0.45,2,3,-1,799,3
1.04238350117,0.0467225326306,0.0948529545082,0.0224486841229,0.36,0.45,0,0,2,800,3
0.173868496757,1.00208424284,0.119292848605,0.024115482554,0.431,0.45,1,1,2,801,3
0.178696529913,0.152233489434,0.199776992061,1.05655650946,0.41,0.45,3,3,2,802,3
1.30847876242,0.0513201183496,0.0626526500407,-0.0270059415771,0.282,0.45,1,0,-1,803,3
1.55045311924,0.219367290263,0.0331401913004,0.0774636745276,0.446,0.45,0,0,2,804,3
0.433162197996,0.0568376634308,0.132236692566,1.17948210799,0.443,0.45,3,3,2,805,3
0.101694777578,0.0743043784647,1.0288038279,-0.0523480732998,0.477,0.45,2,2,1,806,3
0.300527464961,0.0599947788745,0.119216441254,1.33598420783,0.695,0.45,3,3,1,807,3
1.10627679643,0.0681834327369,0.028505911182,0.00784619406544,0.513,0.45,0,0,1,808,3
0.077521978053,1.15179440552,0.520009993396,0.0304921180195,0.508,0.45,1,1,1,809,3
0.0952942666029,0.0437388576796,1.20171421925,0.0248654044763,0.545,0.45,2,2,1,810,3
1.2236911916,0.0721657510144,0.0237101292033,0.0615606869132,0.531,0.45,1,0,-1,811,3
1.08254492322,0.137177021325,0.030619170338,0.0507043280793,0.488,0.45,0,0,1,812,3
0.281429510923,0.0810525917602,1.30028041371,0.0294645163552,0.457,0.45,2,2,1,813,3
0.391226342194,0.229772593244,0.0423250831192,1.29346140591,0.441,0.45,3,3,2,814,3
1.20146563498,0.124248348396,0.0714390012547,0.000568291387885,0.382,0.45,1,0,-1,815,3
0.102074355193,0.0525534208724,0.346268583579,1.26445050115,0.605,0.45,3,3,1,816,3
0.107305839061,0.0345998842732,1.21110849491,-0.039318040939,0.456,0.45,2,2,1,817,3
1.42155354256,0.0718137804661,0.115975158259,0.0704384055127,0.467,0.45,0,0,1,818,3
0.322800517645,0.0584546659068,0.940019928316,1.25870761447,0.491,0.45,3,3,1,819,3
0.181488393378,0.0548808102978,1.05028461946,0.0638120982575,0.432,0.45,2,2,2,820,3
0.109253720957,1.42561538719,0.0234866910035,-0.00372910868694,0.407,0.45,1,1,2,821,3
1.05313425931,0.203192685311,0.182303798735,0.165561585275,0.648,0.45,0,0,1,822,3
0.224039699021,0.0871214491629,1.0907366789,-0.109253060912,0.55,0.45,2,2,1,823,3
1.04137918599,0.0816605962279,0.108311487985,0.0387859725935,0.532,0.45,0,0,1,824,3
0.240132870671,1.0421361695,0.200327675596,0.0624345143533,0.536,0.45,1,1,1,825,3
0.27366257815,0.0392591446073,0.323456657852,1.18874874954,0.503,0.45,3,3,1,826,3
0.148222514847,1.37806352349,0.0874277575602,-0.131601990482,0.516,0.45,1,1,1,827,3
0.174377181275,0.0402889943906,1.33029723185,-0.0339985452025,0.454,0.45,2,2,1,828,3
0.130457122287,0.0413835047735,1.12423546614,0.313708875144,0.586,0.45,3,2,-1,829,3
1.13849110028,0.0374605830618,0.0469587167638,-0.0831161394376,0.486,0.45,0,0,1,830,3
0.404523683172,0.0488295922009,0.0725370668853,1.12846515566,0.5,0.45,3,3,1,831,3
0.108488417871,1.06839456298,0.0315667792429,0.0325469151765,0.485,0.45,1,1,1,832,3
0.16079614946,0.0169159666915,1.18260364731,-0.209535026607,0.468,0.45,2,2,1,833,3
1.10409376008,0.0691937368626,0.0533194573089,0.054525356701,0.41,0.45,0,0,2,834,3
0.117428403596,0.0795299375044,1.03179261362,-0.0139632686219,0.397,0.45,2,2,2,835,3
1.33016742855,0.0794737875891,0.0578087355578,0.0753403975483,0.338,0.45,1,0,-1,836,3
1.10399841426,0.0426211786567,0.0537467849772,0.0413525373764,0.341,0.45,0,0,2,837,3
0.114280726778,0.0576895059245,0.0493721345736,1.16743270473,0.323,0.45,3,3,2,838,3
0.233232514561,0.105774762991,1.0349079442,-0.0470602952857,0.354,0.45,2,2,2,839,3
0.12496688759,1.03606336728,0.0457956473651,0.0510973565914,0.253,0.45,3,1,-1,840,3
1.16617057724,0.0493064194316,0.0579680409018,0.0415317991824,0.267,0.45,0,0,2,841,3
0.385925561356,0.0604601888497,1.15351397086,0.0429005934315,0.265,0.45,1,2,-1,842,3
1.00855116612,0.066409860302,0.0468744212818,0.0584981516062,0.232,0.45,3,0,-1,843,3
1.1848551476,0.0650367169216,0.0589311041008,0.0422744783937,0.327,0.45,0,0,2,844,3
0.0855582005465,0.052481788828,1.11576434244,0.0254276106074,0.276,0.45,2,2,2,845,3
0.314301533597,1.46849255676,0.0639109670654,0.0510709196068,0.268,0.45,1,1,2,846,3
0.139522219849,0.0398181591176,1.03688788026,0.0114889707511,0.312,0.45,2,2,2,847,3
1.30396034539,0.0785898489029,0.0546783787745,0.0358320818329,0.251,0.45,0,0,2,848,3
0.15472738941,1.35887202586,0.231150988132,0.0177971494305,0.284,0.45,1,1,2,849,3
0.101348624381,0.0334504095652,1.08630703882,0.0157357702983,0.282,0.45,3,2,-1,850,3
0.20351699482,0.127979321692,1.15754124741,0.00776055934206,0.338,0.45,2,2,2,851,3
1.03976814209,0.0632125499667,0.0468808212719,0.0492649202054,0.19,0.45,3,0,-1,852,3
0.110702912623,1.0104097668,0.0658352971273,-0.00286844830913,0.431,0.45,1,1,2,853,3
1.20195601574,0.143998133538,0.057015709644,0.019541991905,0.35,0.45,0,0,2,854,3
0.350038961273,0.123027534778,0.31006499016,1.10280289672,0.532,0.45,3,3,1,855,3
0.0916523288191,1.27936111059,0.0504100134861,0.034905362625,0.449,0.45,2,1,-1,856,3
0.0953856439871,1.38129465369,0.026562025984,0.0290644493934,0.372,0.45,1,1,2,857,3
1.01142038431,0.180015242321,0.0749468436083,-0.0123899329806,0.309,0.45,0,0,2,858,3
0.2362213746,0.0743943999684,1.04465087542,0.112716770325,0.319,0.45,1,2,-1,859,3
0.206956894683,0.0974353554124,1.13306567804,0.0311311473295,0.319,0.45,2,2,2,860,3
1.13126078489,0.812937598239,0.116581126428,0.0202149673299,0.442,0.45,0,0,2,861,3
0.116713003571,0.13792441082,0.240103592922,1.2053737098,0.434,0.45,3,3,2,862,3
1.03000945672,0.472127065568,0.175328231487,0.0534315266917,0.426,0.45,1,0,-1,863,3
0.133432549877,0.20920299301,0.417995918484,1.27503479553,0.394,0.45,3,3,2,864,3
1.06230808033,0.0655489053186,0.1219176771,0.0336447627391,0.367,0.45,0,0,2,865,3
0.203917314995,0.139820720088,1.05064505619,-0.030017997777,0.304,0.45,2,2,2,866,3
0.182819677984,0.125328720891,0.238681137705,1.09054250268,0.336,0.45,3,3,2,867,3
0.117417134992,0.156814009888,0.188943085546,-0.0953214358943,0.7,0.45,2,-1,0,869,4
0.142378598281,0.212110867179,0.196890356737,-0.0318777472795,0.7,0.45,0,-1,0,870,4
1.08079524021,0.181629828452,0.246251164636,0.124083759262,0.36,0.45,3,0,-1,870,4
0.309569219247,1.23036897059,0.211127944374,0.0572511387798,0.378,0.45,1,1,2,871,4
0.201714229389,0.104626475868,0.717860958694,1.00707078575,0.531,0.45,3,3,1,872,4
1.23871929226,0.198327071195,0.139120575976,0.00586668081919,0.427,0.45,0,0,2,873,4
0.265854658537,1.2471422056,0.273135637876,-0.0328479186137,0.328,0.45,1,1,2,874,4
1.06151593512,0.241329179541,0.317957074321,0.0307398424666,0.415,0.45,0,0,2,875,4
0.322568933487,0.169675354784,1.20932287408,0.0488612297292,0.345,0.45,2,2,2,876,4
0.337644017651,0.205538626631,0.598378214529,1.08968846579,0.413,0.45,3,3,2,877,4
0.300796591155,1.07119730444,0.211668572114,-0.00292763581611,0.367,0.45,2,1,-1,878,4
0.930882564117,1.07379441045,0.194958337971,0.0215454232121,0.371,0.45,1,1,2,879,4
0.303161723441,1.02957014937,0.271620156174,-0.0368935749875,0.317,0.45,2,1,-1,880,4
0.864846223183,1.15698840014,0.397435421897,0.0765243584289,0.458,0.45,1,1,1,881,4
1.03894372817,1.32219154698,0.435526929602,0.102098034352,0.369,0.45,0,1,-1,882,4
0.44015005652,0.244124881395,1.00250300017,0.0263424063714,0.224,0.45,3,2,-1,883,4
0.418457804964,1.20452872603,0.215333193843,0.0189602497906,0.393,0.45,1,1,2,884,4
0.125120100111,0.0839535847685,1.00546176513,0.0652535497439,0.337,0.45,3,2,-1,885,4
1.06216965182,0.50420845156,0.198691810218,-0.0204325613896,0.266,0.45,0,0,2,886,4
0.223603971322,0.208224292104,0.363322583309,1.06204421588,0.234,0.45,1,3,-1,887,4
0.218301038064,1.05820394486,0.175418649943,-0.0547082648041,0.113,0.45,2,1,-1,888,4
0.543184152508,1.07073482481,0.688213460898,-0.0928288891394,0.261,0.45,3,1,-1,889,4
0.239247087888,0.260917838773,0.216729596061,-0.00485819499979,0.7,0.45,2,-1,0,891,4
0.224561298162,0.278103258412,0.253313061754,-0.0101849102237,0.7,0.45,0,-1,0,892,4
0.218098100684,0.296416463859,0.277620641766,-0.0385749869082,0.7,0.45,2,-1,0,893,4
0.368820962099,0.27125248248,1.29717649812,-0.0859295243911,0.0590000000005,0.45,3,2,-1,893,4
1.55279197444,0.285759400991,0.191679671579,0.0466666663471,0.361,0.45,0,0,2,894,4
0.362217247872,1.29769121536,0.201672856239,-0.0423332842801,0.441,0.45,1,1,2,895,4
0.257876706547,0.0756913413477,1.00613454445,0.0548959476729,0.38,0.45,3,2,-1,896,4
0.173326424996,1.01325194274,0.0487087918961,0.0204624762342,0.393,0.45,1,1,2,897,4
1.23392864929,0.330603454461,0.0513815203669,0.0118457198036,0.406,0.45,0,0,2,898,4
0.260151632263,0.0810590668203,1.02482186826,0.00371882282996,0.342,0.45,2,2,2,899,4
1.04202271261,0.329454453763,0.121066715554,0.0737714398233,0.294,0.45,1,0,-1,900,4
1.11140594168,0.0721310825218,0.0522794912165,0.0329450707922,0.291000000001,0.45,2,0,-1,901,4
0.15240061814,0.0831527936143,1.0609902402,0.0371035408206,0.188000000001,0.45,0,2,-1,902,4
0.375492240344,0.525537687153,0.127860686933,1.02826257474,0.478000000001,0.45,3,3,1,903,4
0.118885066818,0.412256984274,1.10346416376,-0.0157475700692,0.507000000001,0.45,2,2,1,904,4
1.20584982425,0.268269256854,0.171697109487,0.117141824679,0.414000000001,0.45,0,0,2,905,4
0.237294499193,0.1642592531,1.02401985213,-0.00179440685417,0.356000000001,0.45,3,2,-1,906,4
0.288342808464,1.32513591696,0.080727476517,-0.0656639766713,0.445000000001,0.45,1,1,2,907,4
0.410689667862,0.121755728939,0.629338621975,1.14825940501,0.511000000001,0.45,3,3,1,908,4
0.30880887425,1.02654274434,0.0594429616295,-0.0362964585719,0.375000000001,0.45,0,1,-1,909,4
0.170023892208,0.0770851275696,1.15453914973,-0.0377254106745,0.345000000001,0.45,1,2,-1,910,4
1.18910547272,0.0878928721136,0.04777490364,0.0649569411282,0.522000000001,0.45,0,0,1,911,4
0.206837897795,0.0801213188267,1.15514524216,-0.0586907764227,0.462000000001,0.45,2,2,1,912,4
0.0847945017988,1.22126846615,0.0232738939006,0.033724779507,0.409000000001,0.45,1,1,2,913,4
0.173595740616,0.0962665196204,1.05825620353,-0.0729668378076,0.459000000001,0.45,2,2,1,914,4
0.483913599869,0.219952191654,0.436555251558,1.03995427799,0.532000000001,0.45,3,3,1,915,4
0.186916953778,0.0884420914497,1.14523204774,-0.0165668365215,0.489000000001,0.45,2,2,1,916,4
0.339605980941,0.167758031975,0.370632748471,1.06236891746,0.563000000001,0.45,3,3,1,917,4
0.169265592111,1.08095688158,0.105787567724,0.0649983193972,0.494000000001,0.45,1,1,1,918,4
1.02699363907,0.222732327002,0.281472399564,0.125575787664,0.482000000001,0.45,0,0,1,919,4
0.137807279392,1.00703996398,0.105784456817,0.0112226720877,0.451000000001,0.45,1,1,1,920,4
0.313189639648,0.614273409469,0.70899109773,0.879763863666,0.7,0.45,3,-1,0,922,4
1.11908492536,0.169825868168,0.0495300009942,0.142453465172,0.394000000001,0.45,0,0,2,922,4
0.0996593084134,0.104754794293,1.13420262737,-0.0552905366775,0.426000000001,0.45,2,2,2,923,4
1.08192356884,0.201713661484,0.0886196901776,0.16327864998,0.388000000001,0.45,0,0,2,924,4
0.372637916729,0.348966680883,0.368011488931,1.03818131563,0.474000000001,0.45,3,3,1,925,4
0.0503028374288,1.16647868297,0.0647136343615,0.0433346168941,0.456000000001,0.45,2,1,-1,926,4
0.0769729412706,1.09709982552,0.0555304690368,0.0488013465167,0.478000000001,0.45,1,1,1,927,4
0.100893132041,0.0546877454585,1.11305852038,-0.0312625471199,0.481000000001,0.45,2,2,1,928,4
1.1836271712,0.0672558988523,0.150983037579,0.161116864626,0.459000000001,0.45,0,0,1,929,4
0.329770035861,0.221501982753,0.41425802118,1.03507837828,0.575000000001,0.45,3,3,1,930,4
0.386559041182,1.13759955133,0.17371953542,0.0982287614294,0.492000000001,0.45,1,1,1,931,4
0.103176298893,0.0392911790777,1.04098167122,0.0321064584927,0.531000000001,0.45,3,2,-1,932,4
1.07879178764,0.924435094725,0.207388891661,0.0489747702928,0.658000000001,0.45,0,0,1,933,4
0.159287517963,0.176705380903,0.115141718835,0.165483771394,0.7,0.45,1,-1,0,935,4
1.1227368489,0.105945612132,0.108761049345,0.0385135930891,0.578000000001,0.45,0,0,1,935,4
0.220697483158,0.0719987231036,1.0068054742,0.00624124038344,0.441000000001,0.45,2,2,2,936,4
0.821990759825,1.08457846713,0.0680968687774,0.18069542914,0.437000000001,0.45,1,1,2,937,4
0.186297518807,0.118161889141,1.14308505667,-0.0153888930721,0.377000000001,0.45,2,2,2,938,4
0.234861124722,0.0884417427716,0.0830273329571,1.01182307402,0.350000000001,0.45,3,3,2,939,4
0.162046435647,1.04021463346,0.182487849944,0.0899360839603,0.352000000001,0.45,2,1,-1,940,4
0.2929346231,1.06571826589,0.139596687269,0.122927463736,0.316000000001,0.45,1,1,2,941,4
0.147186543852,0.219077064873,1.04241395411,0.028114356479,0.313000000001,0.45,3,2,-1,942,4
0.222876088985,1.04754021497,0.0470610776701,0.0360693660808,0.283000000001,0.45,0,1,-1,943,4
0.107498163147,0.0625026819554,0.442283665085,1.15964893512,0.424000000001,0.45,3,3,2,944,4
1.03011650218,0.0571545781857,0.0594803532417,-0.046262217046,0.348000000001,0.45,1,0,-1,945,4
1.09082800896,0.0554762409493,0.060145667133,-0.026072177054,0.316000000001,0.45,0,0,2,946,4
0.175890535318,1.1083911119,0.0537977222875,-0.00950969540394,0.322000000001,0.45,1,1,2,947,4
0.136516983691,1.16365780719,0.0756017679073,0.203022015258,0.403000000001,0.45,2,1,-1,948,4
0.155475697714,0.0762921382752,0.155872683498,1.17849645681,0.412000000001,0.45,3,3,2,949,4
0.198066115718,0.0554270140413,1.07127702785,-0.090632476335,0.450000000001,0.45,2,2,1,950,4
1.13654637099,0.111612287375,0.111183217098,0.0320391226292,0.406000000001,0.45,0,0,2,951,4
0.130416191126,0.0746181345316,1.0329227294,-0.0495831323832,0.357000000001,0.45,2,2,2,952,4
1.09429943153,0.131854967176,0.12014027044,0.0454636849198,0.536000000001,0.45,0,0,1,953,4
0.1067616823,1.08780023962,0.108375993831,-0.0393024856261,0.463000000001,0.45,1,1,1,954,4
0.166068531116,0.241743176542,0.199384111526,1.1849684251,0.434000000001,0.45,3,3,2,955,4
1.01193246073,0.184078494595,0.154857996391,0.0700549398793,0.411000000001,0.45,1,0,-1,956,4
1.104044383,0.239790094019,0.160895124214,-0.00876938910368,0.344000000001,0.45,0,0,2,957,4
0.113700288238,0.305616103577,0.37571181338,1.21118473874,0.391000000001,0.45,3,3,2,958,4
1.15820828375,0.117868863093,0.125884701813,0.0160585118191,0.345000000001,0.45,0,0,2,959,4
0.237640295793,0.0982022256384,1.17534687144,-0.061666834107,0.371000000001,0.45,2,2,2,960,4
1.01062643034,0.679934339757,0.100898920258,0.00960372355286,0.347000000001,0.45,1,0,-1,961,4
0.12035585016,0.0911505979369,1.0198228409,-0.0240658177076,0.403000000001,0.45,2,2,2,962,4
0.247410411746,0.230908425927,0.13448024674,1.09922062729,0.360000000001,0.45,3,3,2,963,4
0.088988516603,0.761735966218,1.0456661774,-0.0378690919895,0.443000000001,0.45,2,2,2,964,4
0.270263240396,0.0696064778636,0.111221727408,1.20810488511,0.499000000001,0.45,3,3,1,965,4
1.2878916617,0.0510742550157,0.0571393055853,0.0311133735707,0.355000000001,0.45,0,0,2,966,4
0.116426823878,1.28606688746,0.142893249443,0.129508488916,0.567000000001,0.45,1,1,1,967,4
0.499692740873,0.192492406955,0.117080962092,1.03420124503,0.452000000001,0.45,3,3,1,968,4
0.15311631218,1.35288867463,0.0613446465026,0.0651346035179,0.385000000001,0.45,1,1,2,969,4
1.28320845887,0.138277439919,0.0595729177812,0.0510683190406,0.405000000001,0.45,0,0,2,970,4
0.257297628624,0.146405736856,0.114202110541,1.11160158072,0.372000000001,0.45,3,3,2,971,4
0.126768807914,0.0424117565329,1.0831192711,-0.0579818503003,0.282000000001,0.45,2,2,2,972,4
1.25155307676,0.0697425396435,0.0699719820128,0.0130100211289,0.246000000001,0.45,1,0,-1,973,4
0.0904453401615,0.0351621044476,1.02342754579,0.0574429781478,0.427000000001,0.45,2,2,2,974,4
1.33906933252,0.107076272201,0.105036398133,0.0225537132434,0.382000000001,0.45,0,0,2,975,4
0.133881378542,0.099271726114,1.00132699243,0.003077308354,0.388000000001,0.45,2,2,2,976,4
1.29388183345,0.296487243453,0.0796972819615,0.0561530107416,0.346000000001,0.45,1,0,-1,977,4
0.291947023194,0.154773466609,0.0387192606042,1.14828952791,0.447000000001,0.45,3,3,2,978,4
1.18490731433,0.0892612787592,0.142947853938,-0.099233073773,0.421000000001,0.45,0,0,2,979,4
0.217242127004,1.03978318209,0.204606353153,-0.00766695098711,0.382000000001,0.45,1,1,2,980,4
1.15805198134,0.143595890102,0.223757445373,0.103476418112,0.413000000001,0.45,0,0,2,981,4
0.1705285122,0.18608410324,0.154228440988,1.00636720589,0.410000000001,0.45,3,3,2,982,4
0.292153196646,1.03220412185,0.164234453604,-0.0053860167424,0.353000000001,0.45,1,1,2,983,4
0.109261522572,1.10218609169,0.405477059049,0.0256840589871,0.390000000001,0.45,2,1,-1,984,4
0.37368120867,0.053170946881,1.05394893463,0.75241149951,0.408000000001,0.45,3,2,-1,985,4
0.258089197016,0.0513227389485,1.04677093185,-0.153739088751,0.399000000001,0.45,2,2,2,986,4
1.02780536149,0.122840532781,0.148364160478,0.13114005212,0.280000000001,0.45,0,0,2,987,4
0.158361912087,0.0567798943981,1.16657078378,-0.0128430307555,0.284000000001,0.45,2,2,2,988,4
0.24937631795,0.065089398879,0.176107321831,1.05943353337,0.452000000001,0.45,3,3,1,989,4
1.1949004476,0.638797366222,0.0703886624658,-0.0150261530017,0.440000000001,0.45,0,0,2,990,4
0.09104118283,1.03722709348,0.129888361611,-0.0263324163755,0.391000000001,0.45,1,1,2,991,4
1.07249523139,0.100698210833,0.236631882776,0.0674583299366,0.450000000001,0.45,0,0,1,992,4
0.12029066408,0.239203836627,0.273126046851,1.07059110028,0.466000000001,0.45,3,3,1,993,4
0.228233539113,1.01253858812,0.0670431466949,-0.0403909808625,0.382000000001,0.45,1,1,2,994,4
0.233814669214,0.10140647848,0.20243762691,1.09396480897,0.401000000001,0.45,3,3,2,995,4
0.375186679322,0.0950846350021,1.1077776348,-0.129925573257,0.392000000001,0.45,2,2,2,996,4
1.01428868845,0.15305438391,0.110601852305,0.0383306841132,0.282000000001,0.45,0,0,2,997,4
0.174664299918,0.0451118005489,1.00081877833,-0.0203165717854,0.316000000001,0.45,2,2,2,998,4
1.02675558744,0.129701623476,0.0644354262342,0.0834908993272,0.294000000001,0.45,1,0,-1,999,4
0.098328066875,0.485175268893,1.06993705588,0.197438187473,0.456000000001,0.45,2,2,1,1000,4
1.03214998586,0.0654705632222,0.0616819793138,0.0559702900621,0.315000000001,0.45,1,0,-1,1001,4
1.00319169207,0.140313573159,0.11241045145,0.0666671316951,0.288000000001,0.45,0,0,2,1002,4
0.202406978104,0.0630404184176,0.83946730315,1.07365092548,0.426000000001,0.45,3,3,2,1003,4
0.316837407934,1.0920343481,0.072347920132,0.0258704956359,0.410000000001,0.45,0,1,-1,1004,4
0.128592531376,1.07647531732,0.0797708261767,0.05276345474,0.493000000001,0.45,1,1,1,1005,4
0.410525962343,0.209965870116,0.12545983459,1.06562879072,0.486000000001,0.45,3,3,1,1006,4
1.09422863924,0.157243824319,0.0894166695533,-0.0210938403554,0.420000000001,0.45,1,0,-1,1007,4
0.148648933247,0.0639121895966,1.05498815652,-0.0378575689635,0.552000000001,0.45,2,2,1,1008,4
1.23484346446,0.0660452423891,0.136465268991,0.0161211071253,0.551000000001,0.45,0,0,1,1009,4
0.168023322123,0.0458747321231,1.03693975157,-0.0330741439346,0.577000000001,0.45,2,2,1,1010,4
0.296539030326,0.207535652045,0.207191119562,1.13141628293,0.574000000001,0.45,3,3,1,1011,4
0.121002751645,1.19150827013,0.0624550963546,0.0471731082409,0.515000000001,0.45,2,1,-1,1012,4
1.06586221278,0.0352793106382,0.0856729279405,0.061109833889,0.561000000001,0.45,0,0,1,1013,4
0.111898022637,1.06016357617,0.0719452794699,-0.045184826183,0.515000000001,0.45,1,1,1,1014,4
0.302264941501,0.0468750083174,0.226275692236,1.04652435156,0.472000000001,0.45,3,3,1,1015,4
1.13754140407,0.37208278116,0.0818571541108,0.0306246046072,0.380000000001,0.45,0,0,2,1016,4
0.136766749468,0.079577832402,1.11312173007,0.00305303880109,0.335000000001,0.45,3,2,-1,1017,4
0.140623767368,0.103148092175,0.066228094143,0.0460281106725,0.7,0.45,1,-1,0,1019,4
0.0999277480604,1.03866313996,0.0545867125848,0.0517882191196,0.174000000001,0.45,0,1,-1,1019,4
0.211423700713,0.253914852555,0.28133821101,1.05446225746,0.356000000001,0.45,2,3,-1,1020,4
0.263535279617,1.03841271878,0.0568314848362,0.00295000955417,0.377000000001,0.45,1,1,2,1021,4
0.12528932737,0.078508018569,1.08397572039,0.0197451283477,0.431000000001,0.45,2,2,2,1022,4
0.315232613616,0.286972783835,0.189522783195,1.21775473264,0.376000000001,0.45,3,3,2,1023,4
0.104360029766,1.04185022689,0.0972216340604,-0.0899042149003,0.391000000001,0.45,2,1,-1,1024,4
1.05600175329,0.107424944771,0.158242525985,0.0635599623298,0.425000000001,0.45,0,0,2,1025,4
0.190403183764,1.34219894335,0.242601908569,0.00761288207643,0.425000000001,0.45,1,1,2,1026,4
0.319795137995,0.258900855268,0.336497495335,1.23695845827,0.393000000001,0.45,3,3,2,1027,4
1.10838337229,0.171361921504,0.182167878868,0.0188981480484,0.457000000001,0.45,0,0,1,1028,4
0.0655384667341,0.191635279204,1.03732121395,0.113100913714,0.429000000001,0.45,3,2,-1,1029,4
0.146674585377,1.32735446464,0.208571521354,0.112467654169,0.417000000001,0.45,1,1,2,1030,4
1.32329341373,0.346990325835,0.325364807796,0.140266488413,0.467000000001,0.45,0,0,1,1031,4
0.0723097659155,0.138080373822,1.05587440108,-0.0418055696667,0.425000000001,0.45,2,2,2,1032,4
0.651199284828,1.06271816397,0.158947528484,0.117514311932,0.462000000001,0.45,1,1,1,1033,4
0.110705219787,0.0468751561104,1.08351202358,0.0773278863194,0.431000000001,0.45,2,2,2,1034,4
0.211651821475,0.0583140988215,0.202085668706,1.19736487855,0.441000000001,0.45,3,3,2,1035,4
0.174097828931,0.167522958451,1.24721371943,-0.0620773132723,0.555000000001,0.45,2,2,1,1036,4
1.12128811485,0.0759493955492,0.149337391858,0.211412753096,0.467000000001,0.45,0,0,1,1037,4
0.0529778715302,1.00578634916,0.234310956084,0.0743572329328,0.369000000001,0.45,1,1,2,1038,4
0.153584667445,0.0355483828346,0.621783401164,1.09593046851,0.406000000001,0.45,3,3,2,1039,4
0.230974234475,1.01167199445,0.160049653176,0.0903767557609,0.363000000001,0.45,1,1,2,1040,4
1.30525786568,0.264090361613,0.290729010136,0.134961794861,0.371000000001,0.45,0,0,2,1041,4
0.16098360122,0.348801871267,0.563238509192,1.0311443535,0.377000000001,0.45,3,3,2,1042,4
0.259993768722,0.108525469732,1.09996990421,-0.013057763341,0.333000000001,0.45,2,2,2,1043,4
0.248874457338,1.27242810547,0.207217171269,0.103495172626,0.368000000001,0.45,1,1,2,1044,4
0.21918399889,0.0948588385444,1.08096348051,0.0983855349937,0.415000000001,0.45,2,2,2,1045,4
0.271160085846,0.369150921599,0.277445304559,1.19212192219,0.389000000001,0.45,3,3,2,1046,4
1.14302097323,0.38579330148,0.181984206603,0.118567530819,0.366000000001,0.45,0,0,2,1047,4
0.23324086863,0.104542362993,1.0749994389,0.0175956602711,0.383000000001,0.45,2,2,2,1048,4
0.330959132708,1.23889895283,0.173477747973,0.117621695458,0.376000000001,0.45,1,1,2,1049,4
1.02369299637,0.064016776599,0.265704656234,0.158041763861,0.369000000001,0.45,0,0,2,1050,4
0.246118438844,0.390138771793,0.299156446215,1.04682748319,0.385000000001,0.45,3,3,2,1051,4
0.264550600462,1.05828789263,0.181557444273,0.0759430992375,0.343000000001,0.45,1,1,2,1052,4
0.210411781703,0.2758942322,1.0075613924,0.080072533487,0.392000000001,0.45,3,2,-1,1053,4
1.22018313532,0.50735900536,0.118279733369,0.137444915286,0.442000000001,0.45,0,0,2,1054,4
0.145820360144,1.2228092952,0.655292987343,0.0841023792859,0.408000000001,0.45,1,1,2,1055,4
0.162806202179,0.0566098358792,1.0687372944,-0.0816848067373,0.401000000001,0.45,2,2,2,1056,4
0.388570513191,0.263074677286,0.145436792165,1.18984820063,0.352000000001,0.45,3,3,2,1057,4
0.15990871586,0.0305811209108,1.09830284277,0.0174698905987,0.326000000001,0.45,2,2,2,1058,4
1.20875380885,0.213637584966,0.173269278253,0.112533228946,0.359000000001,0.45,0,0,2,1059,4
0.161085974849,0.372920853821,1.13921013438,-0.0206072051981,0.391000000001,0.45,2,2,2,1060,4
0.270397193825,0.159342222461,0.139915883172,1.31410731109,0.401000000001,0.45,3,3,2,1061,4
0.28174078797,1.22592563467,0.0637619489975,0.142528726724,0.302000000001,0.45,1,1,2,1062,4
1.10228449243,0.280606757125,0.251046509384,0.171307344877,0.328000000001,0.45,0,0,2,1063,4
0.254543034502,0.185965538637,0.518221666694,1.19197666133,0.365000000001,0.45,3,3,2,1064,4
1.02804535982,0.295877269964,0.0433336437556,0.0914788029019,0.498000000001,0.45,0,0,1,1065,4
0.190542984008,0.233588685411,1.02210411106,0.0126808100598,0.380000000001,0.45,1,2,-1,1066,4
0.16317334249,0.0349983705793,0.280066105543,1.0540053721,0.471000000001,0.45,3,3,1,1067,4
0.179785424917,0.0474084242338,1.02948711216,-0.000545635076762,0.375000000001,0.45,2,2,2,1068,4
1.29582090836,0.120873808963,0.125965429627,0.0430301603659,0.337000000001,0.45,0,0,2,1069,4
0.172896071688,0.0868344800623,1.11385190267,-0.0149767287848,0.385000000001,0.45,2,2,2,1070,4
0.257577989861,1.09506663364,0.0772781450818,0.0851739091444,0.341000000001,0.45,1,1,2,1071,4
0.177315011314,0.0736594563535,1.07278334521,0.0651088970607,0.356000000001,0.45,2,2,2,1072,4
0.322064296453,0.0906578407735,0.188696445426,1.38785345073,0.401000000001,0.45,3,3,2,1073,4
1.11268072937,0.114873272513,0.104690446079,0.0686184047114,0.360000000001,0.45,0,0,2,1074,4
0.231609709353,1.42164496469,0.179871466442,-0.0171946579288,0.340000000001,0.45,1,1,2,1075,4
1.01335019522,0.192944732736,0.0861868541109,0.0798670095112,0.422000000001,0.45,0,0,2,1076,4
0.2397607959,0.0752474739468,1.2359706455,0.0281213249964,0.451000000001,0.45,3,2,-1,1077,4
0.210001000625,0.065285555539,1.25288806685,0.00604630420722,0.470000000001,0.45,1,2,-1,1078,4
0.32194714904,0.0533306482053,0.206371853616,1.20534997504,0.442000000001,0.45,3,3,2,1079,4
0.238973589396,0.0495739133247,1.02355646618,0.0354498526019,0.445000000001,0.45,2,2,2,1080,4
1.03202509829,0.0577470876829,0.069020624645,0.0579582235725,0.450000000001,0.45,0,0,1,1081,4
0.27807278242,1.264902352,0.143829248774,0.104874527916,0.387000000001,0.45,2,1,-1,1082,4
0.136260886374,1.17890464457,0.0417621446479,0.00293981244391,0.356000000001,0.45,1,1,2,1083,4
0.174608158475,0.0375111239932,1.16792584209,0.0285977337001,0.434000000001,0.45,2,2,2,1084,4
1.23167251149,0.059106128729,0.113054738184,0.0774710635354,0.484000000001,0.45,0,0,1,1085,5
0.115286040611,0.0702781336169,1.12064883958,-0.0225876508446,0.488000000001,0.45,2,2,1,1086,5
0.654711504436,0.109007605316,0.0270528365358,1.01057553652,0.530000000001,0.45,3,3,1,1087,5
0.164007302165,1.10504808469,0.044377338817,-0.0184470537649,0.485000000001,0.45,1,1,1,1088,5
0.207970114651,0.0311137890438,0.154220365033,1.32957577933,0.492000000001,0.45,3,3,1,1089,5
0.201566606118,1.1535740173,0.0397424331143,0.0489850342349,0.468000000001,0.45,2,1,-1,1090,5
0.34326978487,1.07397374708,0.129128915971,0.0343338375129,0.412000000001,0.45,1,1,2,1091,5
1.33783262246,0.220699495379,0.244307694013,0.0562362883665,0.353000000001,0.45,0,0,2,1092,5
0.166326868567,0.0588107535007,1.02032403702,1.39437041075,0.463000000001,0.45,3,3,1,1093,5
1.24036355313,0.0629228009811,0.0818335860955,0.0903443120188,0.454000000001,0.45,0,0,1,1094,5
0.285962078759,1.22368986435,0.184505020571,-0.0027383420178,0.490000000001,0.45,1,1,1,1095,5
0.331583457871,0.0687223675887,1.06015922683,0.0464860890818,0.493000000001,0.45,2,2,1,1096,5
1.12963656519,0.0539660827941,0.0535881927576,0.0439784114593,0.455000000001,0.45,0,0,1,1097,5
0.153268694853,0.115391541908,1.17159983886,0.066857549189,0.447000000001,0.45,1,2,-1,1098,5
0.306646733182,0.138367193097,1.17318723678,-0.0187644132214,0.467000000001,0.45,2,2,1,1099,5
0.173688230439,0.0462811699247,0.036577860615,1.03179017687,0.499000000001,0.45,3,3,1,1100,5
0.22240856566,0.0515192302605,1.07977555517,0.0178979037685,0.528000000001,0.45,2,2,1,1101,5
0.099803706929,1.20281735342,0.132871653946,0.0583233939073,0.488000000001,0.45,1,1,1,1102,5
0.342744133885,0.0718789043468,0.328661699718,1.16392210163,0.528000000001,0.45,3,3,1,1103,5
1.05516122498,0.205719378584,0.240412256428,0.0337019212231,0.512000000001,0.45,0,0,1,1104,5
0.245036345,0.223394660431,0.373218378881,1.0453681211,0.585000000001,0.45,3,3,1,1105,5
0.32328296917,0.455876249885,1.02743835783,2.89537442668,0.0260000000006,0.45,1,3,-1,1106,5
0.47631949144,1.17237375059,0.231419863114,0.0302038654701,0.0170000000006,0.45,0,1,-1,1107,5
0.113531628831,0.0800265566345,1.00259357896,0.063822832813,0.327000000001,0.45,2,2,2,1108,5
1.23857203259,0.0642316657263,0.0798649426946,0.0546466659905,0.345000000001,0.45,0,0,2,1109,5
1.12135877971,0.34220482626,0.160882810106,-0.0191553801939,0.387000000001,0.45,1,0,-1,1110,5
0.0938285356819,0.047348491222,1.11235470448,0.04716887755,0.435000000001,0.45,2,2,2,1111,5
0.0863556210173,0.0630272817421,0.0234376318896,1.02624192066,0.422000000001,0.45,3,3,2,1112,5
0.135006348368,1.20620305623,0.0944624794034,0.0235114931562,0.504000000001,0.45,1,1,1,1113,5
0.177162068754,0.125803236824,0.123370253478,1.14618049104,0.504000000001,0.45,3,3,1,1114,5
0.162645874733,0.0543529500021,1.06917362899,0.00779835461834,0.492000000001,0.45,2,2,1,1115,5
1.26044490452,0.127904973762,0.111029514865,0.0276280874081,0.432000000001,0.45,0,0,2,1116,5
0.124688475186,0.0923944885736,1.02877699134,-0.15881651021,0.368000000001,0.45,2,2,2,1117,5
0.268657659735,1.07573902591,0.105110360556,0.154909087756,0.394000000001,0.45,1,1,2,1118,5
1.13831835455,0.128637700473,0.0509885359542,0.0627555218193,0.426000000001,0.45,0,0,2,1119,5
0.191527770528,0.0916845606728,0.156507512563,1.08935376233,0.417000000001,0.45,3,3,2,1120,5
1.06581986599,0.0763098736359,0.0635707026621,0.040911814539,0.418000000001,0.45,0,0,2,1121,5
0.20108604944,1.01555411537,0.0793483857583,-0.00570065104802,0.523000000001,0.45,1,1,1,1122,5
0.305926693164,0.270649810238,0.437057137308,1.02387091864,0.618000000001,0.45,3,3,1,1123,5
0.347408171513,0.338084940751,1.00272619557,1.47457029274,0.00400000000062,0.45,2,3,-1,1124,5
0.178694605095,0.262764736785,0.199297847683,1.03809290255,0.508000000001,0.45,3,3,1,1125,5
0.140654088595,1.01136367127,0.0773147327983,0.0874190250198,0.518000000001,0.45,1,1,1,1126,5
0.153777466495,0.0758031497789,1.01233060091,0.0654892992426,0.609000000001,0.45,2,2,1,1127,5
0.0803685194492,1.03315943211,0.055711164813,0.107654259326,0.600000000001,0.45,1,1,1,1128,5
1.05153039658,0.221974990012,0.27733279879,0.070451664736,0.592000000001,0.45,0,0,1,1129,5
0.132498863617,1.07112167375,0.14267787359,0.0249252791146,0.518000000001,0.45,2,1,-1,1130,5
0.300075577308,0.0715530419551,0.0669818011456,0.0611654591073,0.7,0.45,0,-1,0,1132,5
1.00205198535,0.116776876413,0.138642373794,0.125611855873,0.115000000001,0.45,3,0,-1,1132,5
1.31958095086,0.243923239252,0.0716069280756,0.0553455230802,0.398000000001,0.45,0,0,2,1133,5
0.370958870851,0.243953687898,0.187868370309,1.13266094515,0.436000000001,0.45,3,3,2,1134,5
0.229343098382,1.03922144531,0.105058228843,0.0915057850574,0.438000000001,0.45,1,1,2,1135,5
0.268975666725,0.100742838187,1.04244703039,0.0964368714947,0.522000000001,0.45,2,2,1,1136,5
0.245512767364,1.17963994192,0.0949619236613,0.122079446643,0.497000000001,0.45,1,1,1,1137,5
0.407597909783,0.25776606039,0.347430183633,1.01115110331,0.495000000001,0.45,3,3,1,1138,5
0.227712438056,0.115542365533,1.13986681727,0.0233834583116,0.504000000001,0.45,2,2,1,1139,5
0.345514482011,0.0811173985942,0.210972153133,1.02229660142,0.469000000001,0.45,3,3,1,1140,5
1.02780213257,0.157684110882,0.0926305093069,0.098001067696,0.425000000001,0.45,0,0,2,1141,5
0.183002352464,0.0717247879397,1.02009898146,-0.00190217511335,0.470000000001,0.45,2,2,1,1142,5
1.09556071087,0.0940477086132,0.054681328564,0.116313065863,0.426000000001,0.45,0,0,2,1143,5
0.146810396286,1.19722601438,0.178277353328,0.062092097674,0.497000000001,0.45,1,1,1,1144,5
1.03658992319,0.0595743102916,0.225567665378,0.0893706123488,0.465000000001,0.45,0,0,1,1145,5
0.266228833565,0.11545340631,0.373428576395,1.00719406145,0.428000000001,0.45,3,3,2,1146,5
0.165317013382,0.049856986578,1.1995826549,0.0250601448026,0.403000000001,0.45,2,2,2,1147,5
0.154376432105,1.02862360886,0.168473924442,0.108615199811,0.465000000001,0.45,1,1,1,1148,5
0.256545338453,0.0896094336905,0.355851535579,1.04707269177,0.520000000001,0.45,3,3,1,1149,5
0.255332042611,1.21791892285,0.0593873727331,0.0554127316822,0.472000000001,0.45,1,1,1,1150,5
0.129604344154,0.048591127371,1.08038809779,0.0359034760615,0.547000000001,0.45,2,2,1,1151,5
0.287753009269,0.137560868892,0.145890651762,1.11252766069,0.584000000001,0.45,3,3,1,1152,5
1.03955413737,0.279227391526,0.138857421735,0.0225656742473,0.469000000001,0.45,0,0,1,1153,5
0.249432874683,0.118433429374,1.23182882364,0.0011020919945,0.429000000001,0.45,2,2,2,1154,5
1.1454294034,0.0928303702615,0.0604073549243,0.0633970580941,0.391000000001,0.45,0,0,2,1155,5
0.196708237951,1.07920734074,0.124691665305,0.0367705906149,0.500000000001,0.45,1,1,1,1156,5
1.03635521387,0.198760572047,0.150450027483,0.0566575184723,0.553000000001,0.45,0,0,1,1157,5
0.134067355922,1.02194258342,0.151133761932,0.0116841724672,0.499000000001,0.45,1,1,1,1158,5
0.25797800601,0.121251758673,1.09651232822,0.0641040844615,0.499000000001,0.45,2,2,1,1159,5
0.247264460522,1.00256468444,2.04823033745,-0.00500765502991,0.00100000000064,0.45,3,2,-1,1160,5
0.149223846948,1.00099995413,0.08389851486,0.118377173157,0.532000000001,0.45,1,1,1,1161,5
0.294263038371,0.285111319591,0.367326586594,1.1495665211,0.657000000001,0.45,3,3,1,1162,5
0.20063067192,0.126989229167,0.45068943328,0.108942448361,0.7,0.45,2,-1,0,1164,5
0.268562360841,0.106039241151,1.05672106675,0.0685821784335,0.0530000000006,0.45,0,2,-1,1164,5
0.16146448048,1.05506704373,0.144966134109,0.0972563860306,0.327000000001,0.45,2,1,-1,1165,5
0.185289853162,1.20720737545,0.0870350557181,0.069224744933,0.403000000001,0.45,1,1,2,1166,5
1.0842973732,0.12257414671,0.175057908415,0.0778504341707,0.498000000001,0.45,0,0,1,1167,5
0.289891334944,0.0637048020179,0.60792568234,1.03310057189,0.520000000001,0.45,3,3,1,1168,5
1.10474093248,0.204586454533,0.205420680446,0.118980482753,0.466000000001,0.45,0,0,1,1169,5
0.107707154344,1.14857601352,0.245626979159,0.0701847569137,0.515000000001,0.45,1,1,1,1170,5
0.204084408323,0.1225040987,0.28776034995,1.07175113676,0.614000000001,0.45,3,3,1,1171,5
0.240051734761,0.0788104235646,1.00150494971,0.00527855617498,0.667000000001,0.45,2,2,1,1172,5
