force_0,force_1,force_2,force_3,rt,rt_threshold,target_finger,selected_finger,score,trial,run
0.347730361735,0.0994001438677,1.14529258066,0.359310869281,0.596,0.45,2,2,1,0,0
0.228416477373,0.131693384451,0.123180688131,1.0683371855,0.437,0.45,3,3,2,1,0
1.23474819439,0.204800621872,0.172219825865,0.320855382109,0.326,0.45,1,0,-1,2,0
1.10814291515,0.163321860235,0.0815397334563,0.269609140728,0.378,0.45,0,0,2,3,0
0.215153881869,0.169294655217,0.0723116399086,1.09003013385,0.413,0.45,3,3,2,4,0
1.16993465768,0.431755052623,0.081346261931,0.280590605426,0.42,0.45,0,0,2,5,0
0.289063046257,1.15161518368,0.0779215702776,0.262812188564,0.363,0.45,1,1,2,6,0
0.504225751668,0.159489634089,1.16814940064,0.298168222954,0.319,0.45,2,2,2,7,0
1.49503273571,0.18402812033,0.134985232637,0.189220369511,0.376,0.45,0,0,2,8,0
0.423057593537,0.148799136045,1.21555983302,0.230791824989,0.388,0.45,2,2,2,9,0
0.273888839135,1.08195518174,0.142992342103,0.207255972424,0.42,0.45,1,1,2,10,0
0.158998611359,0.127057401074,0.201093283473,1.06040917485,0.435,0.45,3,3,2,11,0
0.379617940076,0.0696867422968,0.847159717697,0.433407983025,0.7,0.45,2,-1,0,13,0
0.335302856689,1.30520460432,0.0709743376657,0.22610897626,0.498,0.45,1,1,1,13,0
1.0862686251,0.121053647286,0.113573128618,0.237178135532,0.375,0.45,0,0,2,14,0
0.280318309255,0.139098736835,0.118980197027,1.11969300388,0.371,0.45,3,3,2,15,0
0.402482691191,1.23308627744,0.135307609242,0.236131956741,0.398,0.45,1,1,2,16,0
0.195124619478,0.135178302106,0.0687698917123,1.07339656758,0.411,0.45,3,3,2,17,0
1.41753453871,0.220140193498,0.119025851828,0.249912758907,0.402,0.45,0,0,2,18,0
0.442104963642,0.10932557635,1.30875513845,0.301322780217,0.382,0.45,2,2,2,19,0
0.474157339181,0.216967012288,0.16738287259,0.238489336634,0.7,0.45,3,-1,0,21,0
0.355830453548,0.176636555363,0.134041174284,1.31697222022,0.216,0.45,2,3,-1,21,0
0.0719888007586,0.160604402256,1.19026065279,0.244064322598,0.036,0.45,0,2,-1,22,0
0.234203727603,1.17653144697,0.375444583558,0.163612376832,0.5,0.45,1,1,1,23,0
0.108000755708,0.0935732532724,1.0012303233,0.159491651578,0.404,0.45,2,2,2,24,0
1.02690006843,0.126736511241,0.117364303491,0.110263276184,0.393,0.45,1,0,-1,25,0
1.44347500082,0.0869356172591,0.139083755531,0.189464222017,0.547,0.45,0,0,1,26,0
0.21660982115,0.0499062116176,0.130770694572,1.09297969228,0.423,0.45,3,3,2,27,0
0.35264728257,1.11038587407,0.11979960986,0.145338040244,0.429,0.45,1,1,2,28,0
0.234636294134,0.0755133295139,0.394594498275,1.10225964237,0.469,0.45,3,3,1,29,0
1.02158982587,0.170991697702,0.129507931293,0.295480447308,0.434,0.45,0,0,2,30,0
0.498982525365,1.01799691838,0.109621990343,0.149962348992,0.445,0.45,1,1,2,31,0
0.244217192765,0.15596572087,1.00704239618,0.113031324795,0.397,0.45,2,2,2,32,0
0.306763726324,0.22785129963,0.112103826201,1.07815999864,0.422,0.45,3,3,2,33,0
0.324738557964,0.250980623739,1.10273126619,0.168915044786,0.396,0.45,2,2,2,34,0
1.38523271528,0.25614204562,0.134696331714,0.110023418153,0.422,0.45,0,0,2,35,0
0.426908942554,0.143357971489,1.11451298148,0.18781696596,0.491,0.45,2,2,1,36,0
1.364189457,0.182587018412,0.0732320445402,0.145448835169,0.458,0.45,0,0,1,37,0
0.247434688957,0.143359193171,0.161528657071,1.05083013753,0.445,0.45,3,3,2,38,0
0.132279400713,1.03656857723,0.118198935451,0.134213382078,0.671,0.45,1,1,1,39,0
1.89434942147,0.171964581358,0.104145249145,0.130552388703,0.604,0.45,0,0,1,40,0
0.21756793694,1.06611116875,0.0831008203106,0.125484896776,0.442,0.45,1,1,2,41,0
0.0493267126666,0.0393894143569,0.0821967024321,1.00594523345,0.435,0.45,3,3,2,42,0
0.111502008901,1.0346067439,0.158356538372,0.134439683288,0.406,0.45,2,1,-1,43,0
0.152813406718,1.0891386915,0.145404693611,0.124649287467,0.504,0.45,1,1,1,44,0
0.133130930304,0.0549595903035,1.17195947205,0.357841555838,0.491,0.45,2,2,1,45,0
0.187301139799,0.0474255794417,0.101354705113,1.09815031849,0.418,0.45,3,3,2,46,0
1.84614822199,0.0580105480672,0.12724771667,0.0953590055024,0.398,0.45,0,0,2,47,0
0.280844605321,0.0908191501247,1.12620287046,0.211077884037,0.43,0.45,2,2,2,48,0
0.221179429514,0.0349364417915,0.163075694376,1.35677364956,0.365,0.45,3,3,2,49,0
0.336195096149,1.18948246332,0.205812120085,0.0781933382999,0.465,0.45,1,1,1,50,0
1.20558112782,0.208938713907,0.0999788377814,0.0876349017484,0.383,0.45,0,0,2,51,0
0.235450613828,0.145074801077,0.108232720013,1.07961656247,0.43,0.45,3,3,2,52,0
1.58019185707,0.181425347547,0.149531891555,0.113590305283,0.424,0.45,0,0,2,53,0
0.369745193878,1.15895857819,0.168284203729,0.161343366447,0.436,0.45,1,1,2,54,0
0.294580966972,0.186187035904,1.01992635804,0.132399037456,0.338,0.45,2,2,2,55,0
0.431825160706,1.10592876931,0.113340219663,0.0852775725967,0.392,0.45,1,1,2,56,0
0.168313370804,0.161601269669,0.107387963354,1.05542308065,0.407,0.45,3,3,2,57,0
0.287519464166,0.212394071873,1.1885613081,0.199023303083,0.398,0.45,2,2,2,58,0
1.31819681607,0.263470731207,0.205520574434,0.199036859517,0.357,0.45,0,0,2,59,0
0.261467745049,0.185634081053,1.09665901564,0.126705362711,0.374,0.45,2,2,2,60,0
1.50509399852,0.124195712463,0.118513172801,0.0995194711254,0.388,0.45,0,0,2,61,0
0.161305901753,0.126149356099,0.329426893915,1.12750783376,0.408,0.45,3,3,2,62,0
0.402940877076,1.17589136337,0.188146885837,0.0934369407119,0.361,0.45,1,1,2,63,0
0.211725669509,0.154512136305,0.11598363833,1.1500286047,0.375,0.45,3,3,2,64,0
1.38305305642,0.311082855855,0.169279505036,0.157493746013,0.355,0.45,0,0,2,65,0
1.00184321724,0.20726244439,0.166407290743,0.12325541381,0.352,0.45,1,0,-1,66,0
1.02127788408,0.252694616908,0.117725163717,0.0697135538511,0.681,0.45,0,0,1,67,0
0.276020216465,0.107617099904,1.07521092975,0.101151187235,0.467,0.45,2,2,1,68,0
1.18965769465,0.154871903869,0.110114210144,0.114783879668,0.357,0.45,1,0,-1,69,0
0.236459355185,0.0488484695921,1.02802383243,0.141232383105,0.457,0.45,2,2,1,70,0
0.109775694457,0.0832782517574,0.156218387834,1.50221299477,0.445,0.45,3,3,2,71,0
0.132291761579,0.807980193638,1.02741123606,0.264139162657,0.487,0.45,2,2,1,72,0
1.30565815526,0.134252937885,0.151703681375,0.13878701444,0.417,0.45,0,0,2,73,0
0.12425781196,1.27832335071,0.202959736284,0.126711243008,0.384,0.45,1,1,2,74,0
0.136669822167,0.102728552204,0.15930335555,1.20161781165,0.433,0.45,3,3,2,75,0
0.434141700609,1.33385773381,0.197356595906,0.210514043149,0.409,0.45,1,1,2,76,0
1.33311519676,0.209723597065,0.178796090972,0.167788688263,0.345,0.45,0,0,2,77,0
0.168523554097,0.124811666282,0.479136526312,1.04463971795,0.503,0.45,3,3,1,78,0
0.328414271043,1.10021020606,0.0912296260796,0.138606325265,0.511,0.45,2,1,-1,79,0
0.168927830222,0.141934231703,0.12927410831,1.08814815154,0.633,0.45,3,3,1,80,0
1.13567579203,0.2665669004,0.230979145967,0.218717193529,0.527,0.45,0,0,1,81,0
0.162959319283,0.151759519533,0.576847347057,0.258989895655,0.7,0.45,2,-1,0,83,0
0.248231863054,0.151963663499,1.01909129248,0.195167210534,0.215,0.45,1,2,-1,83,0
0.206505889429,0.0995061510314,1.06968582544,0.179912972907,0.636,0.45,2,2,1,84,0
0.149636603043,0.14994640375,0.205161844473,1.28994500029,0.488,0.45,3,3,1,85,0
1.57907136996,0.232395924922,0.230356531023,0.279282690652,0.408,0.45,0,0,2,86,0
0.284484934119,1.05456851051,0.163541372246,0.175772033653,0.461,0.45,1,1,1,87,0
0.167395784446,0.138548602632,0.158544346533,1.13402973477,0.393,0.45,3,3,2,88,0
1.23100530453,0.165592007295,0.143345555349,0.112271726028,0.379,0.45,1,0,-1,89,0
1.20128743457,0.138637259693,0.130133097182,0.097496330585,0.381,0.45,0,0,2,90,0
0.265811510081,0.116887353298,0.146528895585,1.02675731786,0.405,0.45,3,3,2,91,0
0.295152049341,0.186541860101,1.05168927907,0.144712890422,0.406,0.45,2,2,2,92,0
1.20095499708,0.221842603016,0.172603117683,0.10804593087,0.391,0.45,0,0,2,93,0
0.13309848066,0.243880599948,1.11654815877,0.309827608654,0.543,0.45,2,2,1,94,0
0.153768325004,1.03764782922,0.6078165074,0.0919801444749,0.527,0.45,1,1,1,95,0
0.219950767359,0.10593133105,1.0402034242,0.16952627289,0.463,0.45,2,2,1,96,0
1.12736580155,0.0836253920305,0.136397920785,0.085010671907,0.412,0.45,0,0,2,97,0
0.123010989231,0.0647356584688,0.245455228322,1.12038595641,0.437,0.45,3,3,2,98,0
0.391646968005,1.15907669026,0.165420920862,0.12938208307,0.421,0.45,1,1,2,99,0
0.192139870548,0.186642022712,0.155594753468,1.00974941737,0.465,0.45,3,3,1,100,0
1.62773569799,0.222697061986,0.153330765995,0.0376640560934,0.434,0.45,0,0,2,101,0
0.256626083671,1.17509256576,0.15457024162,0.11218733007,0.364,0.45,1,1,2,102,0
0.231762460604,0.115522764938,1.0651153911,0.120082721088,0.347,0.45,2,2,2,103,0
0.251822637906,0.214858593848,0.141385886601,1.00111718675,0.485,0.45,3,3,1,104,0
0.270286475661,0.230316281994,0.154183001814,1.21761442237,0.198,0.45,2,3,-1,105,0
0.146858906624,1.07665717277,0.165128148841,0.0260480831957,0.52,0.45,1,1,1,106,0
1.78196450879,0.178764441753,0.125106376825,0.0323986340626,0.389,0.45,0,0,2,107,0
0.275132692642,0.144324063356,1.00224391114,0.0801310710489,0.351,0.45,2,2,2,108,0
1.86033904724,0.0830819267505,0.063319971084,0.0391179893301,0.539,0.45,0,0,1,109,0
0.389134096818,1.02878877553,0.0688334529047,0.0848125464652,0.577,0.45,1,1,1,110,0
0.13834199711,0.190436402108,0.126710124397,1.28497351416,0.445,0.45,3,3,2,111,0
1.06352245878,0.262577845497,0.164343229138,0.0382945951395,0.372,0.45,0,0,2,112,0
0.121442811252,0.108393416915,0.269697236608,1.06946632413,0.477,0.45,3,3,1,113,0
0.1226955939,0.178219622351,0.300709542038,0.105666295835,0.7,0.45,1,-1,0,115,0
0.0803707923766,0.0614785144402,1.03208300108,0.156818280961,0.598,0.45,2,2,1,115,0
0.180678871382,0.0872922822118,0.203254449101,1.14984779569,0.544,0.45,3,3,1,116,0
0.344294684909,0.119360803681,0.93062555825,0.130345275373,0.7,0.45,2,-1,0,118,0
0.34615647371,0.128277531076,1.01923790324,0.137690545332,0.027,0.45,1,2,-1,118,0
1.73275406596,0.0935748804707,0.142780548504,0.135070500208,0.536,0.45,0,0,1,119,0
0.085936073424,0.0641015596522,1.06974339638,0.0677733774792,0.422,0.45,2,2,2,120,0
0.118905586615,1.06632300165,0.116696338725,0.11037450845,0.384,0.45,1,1,2,121,0
1.9009563942,0.117929920743,0.100931352346,0.0728601330892,0.348,0.45,0,0,2,122,0
0.11856207933,0.118405137282,0.497678930206,1.1070126375,0.433,0.45,3,3,2,123,0
1.46236083016,0.227505702935,0.108806324649,0.0158550754658,0.37,0.45,0,0,2,124,0
0.36216723515,1.06338192465,0.135869746913,0.0986692896257,0.38,0.45,1,1,2,125,0
0.214610340751,0.128209168869,0.128968532566,1.05427954907,0.429,0.45,3,3,2,126,0
0.329161258327,0.213229702518,1.00642555266,0.142664191283,0.385,0.45,2,2,2,127,0
1.19671092064,0.243675792991,0.168813147846,0.119332970707,0.342,0.45,0,0,2,128,0
0.37243490466,0.17888269209,1.05345482244,0.112980890725,0.35,0.45,2,2,2,129,0
0.174887312581,0.198230027769,0.129611404156,1.0993853769,0.36,0.45,3,3,2,130,0
0.305994452605,1.428384853,0.183714433201,0.116626584971,0.335,0.45,1,1,2,131,0
0.355316178825,0.0974795046633,1.04120378601,0.363350273376,0.528,0.45,2,2,1,132,0
1.02501789055,0.129766869319,0.129452399879,0.0105450802739,0.347,0.45,0,0,2,133,0
0.247039350953,1.06967308744,0.151928748161,0.0160667780387,0.414,0.45,1,1,2,134,0
0.402287283373,0.256363989591,0.189116564505,0.124827377136,0.7,0.45,3,-1,0,136,0
0.23038441703,0.21018396834,0.117790016625,1.1252201996,0.261,0.45,1,3,-1,136,0
1.20146020287,0.235417539001,0.116804811011,0.0355706827637,0.465,0.45,0,0,1,137,0
0.19402734297,0.132198633513,0.136646808474,1.12389636307,0.406,0.45,3,3,2,138,0
1.19906914129,0.255174356971,0.191753494583,0.11218036363,0.351,0.45,0,0,2,139,0
0.440016413205,0.147280604979,1.12415887689,0.558488128251,0.478,0.45,2,2,1,140,0
1.19161693749,0.206765430386,0.1451371917,0.0154056010121,0.37,0.45,1,0,-1,141,0
0.147637410386,0.07793377282,1.06914233456,0.0296437852743,0.559,0.45,2,2,1,142,0
0.170820241519,0.210506711284,0.0758662194108,1.02691796887,0.457,0.45,3,3,1,143,0
0.11959681988,0.236751146756,1.04326227494,0.184297600441,0.529,0.45,2,2,1,144,0
0.181168229388,0.165697573367,0.1224308508,1.19945073651,0.547,0.45,3,3,1,145,0
1.34478000651,0.296389080508,0.245923373349,0.127835692589,0.401,0.45,1,0,-1,146,0
1.17968309865,0.137692503952,0.11245664098,0.0298009187907,0.401,0.45,0,0,2,147,0
0.190048708987,0.147308323201,0.12314847255,1.2218007644,0.482,0.45,3,3,1,148,0
1.25142810494,0.206280278718,0.177943488291,0.00741362790368,0.386,0.45,0,0,2,149,0
0.295208882683,1.04153729052,0.149146331037,0.0223739843574,0.352,0.45,1,1,2,150,0
0.283569414853,0.0789422056261,1.03419184063,0.710868195213,0.469,0.45,2,2,1,151,0
1.26708132187,0.137388255495,0.10959964411,-0.000368349584443,0.419,0.45,0,0,2,152,0
0.136018278855,0.340158731195,1.04155627922,0.0501464360841,0.481,0.45,2,2,1,153,0
0.253327541203,1.20252615254,0.239000912267,-0.0113956312627,0.447,0.45,1,1,2,154,0
0.168527672857,0.250032201555,0.0629195239717,1.00618110854,0.489,0.45,3,3,1,155,0
0.209821665844,0.290609507525,0.408859305869,0.0694459959715,0.7,0.45,2,-1,0,157,0
1.07389352405,0.577841307176,0.0760712780193,0.0910446323888,0.538,0.45,0,0,1,157,0
0.168416886039,0.233574596037,0.167144042821,1.06878369233,0.56,0.45,3,3,1,158,0
1.12683841899,0.160748529525,0.230721398143,0.0454271462601,0.546,0.45,1,0,-1,159,0
0.0719550426074,0.0225413452542,0.105773735437,1.12198238154,0.546,0.45,3,3,1,160,0
1.19052639154,0.200064369985,0.145555985142,0.079420934679,0.543,0.45,0,0,1,161,0
0.272020477626,1.39038404239,0.124351570577,0.057386518015,0.393,0.45,1,1,2,162,0
0.182615705766,0.231607166381,1.1451280417,0.0704527247326,0.412,0.45,2,2,2,163,0
0.108083438686,0.187156827004,0.158268764152,1.08775701933,0.323,0.45,3,3,2,164,0
0.166674541065,0.288376404891,1.28233402867,0.140215798873,0.37,0.45,2,2,2,165,0
0.203602660694,1.13741385813,0.192844095013,0.0966744131176,0.343,0.45,1,1,2,166,0
1.94005849314,0.205731273487,0.141770429395,0.101340456427,0.348,0.45,0,0,2,167,0
0.117585782134,0.12564191797,1.00036283597,0.341724048547,0.417,0.45,2,2,2,168,0
0.158019140555,1.03583563648,0.126052984519,-0.00944281608921,0.415,0.45,1,1,2,169,0
1.15994078519,0.243135330197,0.106439380174,0.0151827859865,0.337,0.45,0,0,2,170,0
0.107330019635,0.109482770054,0.236020196057,1.02997941934,0.546,0.45,3,3,1,171,0
0.3181876365,1.00253602395,0.105835401131,0.0270297664213,0.636,0.45,1,1,1,172,0
0.186511047699,0.167696120471,0.133392834199,1.04721459735,0.59,0.45,3,3,1,173,0
1.14302027743,0.171434475201,0.149480395329,0.0382274375647,0.502,0.45,0,0,1,174,0
0.327183742518,1.05241948029,0.100639542204,0.0490049477689,0.414,0.45,1,1,2,175,0
0.339172547205,0.274933862787,1.13811655929,0.0653434048134,0.387,0.45,2,2,2,176,0
0.230492488012,0.219277632915,0.177441567997,1.04212781868,0.357,0.45,3,3,2,177,0
0.320052192162,0.233822738858,1.04522742052,0.0593473669589,0.413,0.45,2,2,2,178,0
1.36564604378,0.155060004583,0.0759511022339,0.084883874689,0.595,0.45,0,0,1,179,0
0.246498787724,0.109672396646,1.06613864102,0.0941180909422,0.477,0.45,2,2,1,180,0
1.05353035158,0.119241388391,0.128530774674,-0.00423411351709,0.442,0.45,0,0,2,181,0
0.238324569566,0.177174694926,0.20427106661,0.0364322942896,0.7,0.45,1,-1,0,183,0
0.289181844487,1.25506863315,0.281613102451,0.0369869012298,0.263,0.45,3,1,-1,183,0
1.18702829018,0.140340057317,0.0807736190495,0.0029776649298,0.489,0.45,0,0,1,184,0
0.23317483188,0.127959169926,0.116137204921,1.04052976845,0.493,0.45,3,3,1,185,0
0.347394837968,1.18117467499,0.174141810243,0.020790333083,0.496,0.45,1,1,1,186,0
0.314244970015,0.20751790692,1.08861811461,0.0945968896991,0.424,0.45,2,2,2,187,0
0.1323965864,0.157003185442,0.0949721274347,1.00408950317,0.373,0.45,3,3,2,188,0
0.389825655082,0.281128834633,1.16231507129,0.122323449116,0.32,0.45,2,2,2,189,0
0.371582397361,1.21123821488,0.186911029126,0.0802593487241,0.286,0.45,1,1,2,190,0
2.16576927917,0.182227132633,0.144465508811,0.0112303489355,0.391,0.45,0,0,2,191,0
0.186742186596,0.090343053575,1.12296305977,0.406745703582,0.513,0.45,2,2,1,192,0
0.143210036262,1.00309417953,0.0716675444087,-0.00764376295322,0.434,0.45,1,1,2,193,0
1.64636571718,0.155892039609,0.116788368456,0.0142150697103,0.334,0.45,0,0,2,194,0
0.14065007502,0.140599680178,0.168798585899,1.0593634321,0.435,0.45,3,3,2,195,0
1.00830708709,0.224480799969,0.197888826568,0.0518796339921,0.408,0.45,0,0,2,196,0
0.487641122515,1.03837064417,0.15585736778,0.0148353384106,0.489,0.45,1,1,1,197,0
0.322388398565,0.155570388773,1.07647611202,0.0745409232643,0.602,0.45,3,2,-1,198,0
0.293604454869,0.788178548822,0.148455734294,0.0128890704635,0.7,0.45,1,-1,0,200,0
0.287897966037,1.03614268122,0.139482980729,0.0175746335968,0.0360000000001,0.45,2,1,-1,200,0
1.20349370897,0.48633426734,0.0512803750177,0.0179176658295,0.576,0.45,0,0,1,201,0
0.21322173387,0.0837079087962,1.03958105784,0.0425399707063,0.425,0.45,2,2,2,202,0
0.200937595176,0.0845641153957,0.156649263349,1.02123073136,0.557,0.45,3,3,1,203,0
0.217030873967,0.108426532195,1.08431852007,0.0673649224847,0.447,0.45,2,2,2,204,0
1.11919097735,0.147255455562,0.118071690759,0.0656976228479,0.427,0.45,1,0,-1,205,0
1.56627486621,0.0723280425378,0.190963248516,0.0790833373811,0.595,0.45,0,0,1,206,0
0.154783403153,0.0598942910677,1.0168560835,0.432254717531,0.536,0.45,3,2,-1,207,0
2.05021728734,0.135156767199,0.159025617938,0.0261305851836,0.626,0.45,1,0,-1,208,0
0.234254563844,1.04734145963,0.159329865542,0.142467227141,0.0940000000001,0.45,3,1,-1,209,0
1.25091873048,0.0797020083094,0.206712441154,0.0664247747156,0.566,0.45,0,0,1,210,0
0.275335333725,1.07313404496,0.190811711457,0.0125616502673,0.492,0.45,1,1,1,211,0
0.112455018539,0.0610658193981,1.03879685818,0.0123199028064,0.383,0.45,2,2,2,212,0
0.0952794982307,0.082980379056,0.122293969593,1.02505825528,0.442,0.45,3,3,2,213,0
0.201112278859,0.199767839048,1.00225691616,0.145018785874,0.373,0.45,2,2,2,214,0
0.153927442426,1.02803522798,0.166753932796,0.0824540000448,0.344,0.45,0,1,-1,215,0
0.234526232845,0.053542160181,1.03306729052,0.105169716737,0.41,0.45,2,2,2,216,0
1.09241949848,0.194162893637,0.212948362569,0.114725193983,0.646,0.45,0,0,1,217,1
0.238361921916,0.372770809586,0.192219615988,0.138745969613,0.7,0.45,1,-1,0,219,1
0.509619663905,1.43434676665,0.0883827705508,0.113951593673,0.174,0.45,3,1,-1,219,1
0.288160597472,0.230236103231,1.09183060579,0.0722783446924,0.468,0.45,2,2,1,220,1
0.174704162533,0.163479605806,0.305167985428,1.03016543224,0.462,0.45,3,3,1,221,1
0.39560755489,1.26954977315,0.0823206743516,0.107553280917,0.571,0.45,1,1,1,222,1
0.0994776904165,0.106847449261,1.07680865669,0.0787798659205,0.388,0.45,2,2,2,223,1
0.156963676782,1.03117230785,0.193457984685,0.0974948233192,0.352,0.45,1,1,2,224,1
1.56837806863,0.18510804806,0.164828414304,0.0461008797721,0.337,0.45,0,0,2,225,1
0.17824110457,0.174126765358,1.20320541247,0.0282733023478,0.383,0.45,2,2,2,226,1
1.47440701453,0.190285314788,0.10415605628,0.101068211815,0.354,0.45,0,0,2,227,1
0.158893721387,0.108564484205,0.101122141939,1.11169040303,0.583,0.45,3,3,1,228,1
1.36496053537,0.221659271855,0.121386235023,0.00454049812618,0.476,0.45,0,0,1,229,1
0.425574331461,0.23306551164,0.301570665585,0.400263060892,0.7,0.45,3,-1,0,231,1
0.332440954132,0.163801674902,1.11500848994,0.0760700391911,0.405,0.45,2,2,2,231,1
0.387658006749,1.48660261755,0.145186987357,0.0763500329804,0.324,0.45,1,1,2,232,1
0.192040826593,0.12441530562,0.149127665543,1.17027931102,0.456,0.45,3,3,1,233,1
1.72657907717,0.290636094324,0.183906126156,-0.00933500692099,0.389,0.45,1,0,-1,234,1
0.21813181463,1.00157893957,0.174172841176,0.0430646550871,0.501,0.45,2,1,-1,235,1
0.121923691033,0.0908570495966,0.0861557292286,1.01897937169,0.528,0.45,3,3,1,236,1
1.44321410892,0.225782733805,0.170404312895,0.0600386378049,0.397,0.45,0,0,2,237,1
0.321272996135,0.150794441289,1.1091710901,0.119134515336,0.47,0.45,2,2,1,238,1
1.59004182049,0.212865828643,0.161009771618,0.0523840839188,0.44,0.45,0,0,2,239,1
0.568671095057,1.22791195102,0.147720855022,0.0574028172895,0.44,0.45,1,1,2,240,1
1.29607394115,0.338348824017,0.190442961811,0.0957202635131,0.451,0.45,0,0,1,241,1
0.199843328699,0.185881212147,0.144964029297,1.02246816684,0.562,0.45,3,3,1,242,1
1.29722042987,0.263273779186,0.147284512536,0.0600695425458,0.4,0.45,1,0,-1,243,1
0.154757877927,1.05403531328,0.154035995815,0.0528954661371,0.495,0.45,2,1,-1,244,1
0.0853432538696,1.38113180725,0.205179406743,0.0718132676524,0.604,0.45,1,1,1,245,1
0.0888999659564,0.0390866449472,0.0979715415329,1.17573947904,0.532,0.45,3,3,1,246,1
0.124608979795,0.0840280644574,1.02442089029,0.0853633668148,0.608,0.45,2,2,1,247,1
0.17450951569,0.106586686825,0.241965104421,1.03815075458,0.668,0.45,3,3,1,248,1
1.57352125783,0.214411671933,0.150914283169,0.0550735593698,0.429,0.45,0,0,2,249,1
0.383092194739,0.145778333277,1.12712838607,0.107236856022,0.453,0.45,2,2,1,250,1
1.51992993045,0.214451178256,0.259590763328,0.0926586589339,0.386,0.45,0,0,2,251,1
0.369827354207,0.193480296821,1.1966853702,0.115726150175,0.316,0.45,1,2,-1,252,1
1.13673338073,0.188841472774,0.134679953882,0.0762518482481,0.41,0.45,0,0,2,253,1
0.372816903556,1.25246323207,0.13938695004,0.0446152737698,0.362,0.45,1,1,2,254,1
0.206794613711,0.160226533768,0.104640144845,1.01364187883,0.406,0.45,3,3,2,255,1
0.303445657788,0.286960375924,1.11360000817,0.149355418978,0.341,0.45,2,2,2,256,1
0.500832599847,1.0374319514,0.280679258612,0.0389506641856,0.299,0.45,1,1,2,257,1
0.186463179594,0.199268277982,1.15463697465,0.058422502285,0.394,0.45,2,2,2,258,1
0.205781922542,0.263566051612,0.182507871192,0.0729438056476,0.7,0.45,3,-1,0,260,1
0.217762716908,0.262844429316,0.208951981733,1.10905125573,0.146,0.45,1,3,-1,260,1
1.0787150418,0.168689054739,0.143420287578,0.15426965459,0.611,0.45,0,0,1,261,1
0.283442222487,0.275685312228,0.203063174471,1.23320151719,0.568,0.45,3,3,1,262,1
1.5667174589,0.205871168105,0.19304996471,0.108368062831,0.434,0.45,0,0,2,263,1
0.348914460189,0.136803457367,1.22623949715,0.0806425502379,0.477,0.45,2,2,1,264,1
1.1659193277,0.228448483518,0.197048774999,0.0699560940425,0.385,0.45,0,0,2,265,1
0.511350195158,1.36162539575,0.176731639226,0.142519122743,0.513,0.45,1,1,1,266,1
0.10518213641,0.206648554457,0.126900131162,1.33252176664,0.418,0.45,3,3,2,267,1
0.316238471366,0.2229393463,1.20151143105,0.160232708811,0.328,0.45,2,2,2,268,1
0.24126107461,0.25341142689,0.167843356718,1.33519114682,0.503,0.45,3,3,1,269,1
0.409765055167,0.793496560389,0.124522004622,0.0704286966055,0.7,0.45,1,-1,0,271,1
0.169243266505,0.151733934242,1.15900419445,0.131635952498,0.544,0.45,2,2,1,271,1
1.7660916903,0.256648367824,0.158565630559,0.0402612870991,0.416,0.45,1,0,-1,272,1
1.90538868294,0.101878231854,0.13761185022,0.121862556795,0.501,0.45,0,0,1,273,1
0.102223759707,0.0821577242522,0.125876455786,1.17419893226,0.422,0.45,3,3,2,274,1
1.25939813536,0.146183707898,0.234405328379,0.083437306874,0.447,0.45,0,0,2,275,1
0.183977336634,0.0810560675416,1.24826572487,0.601529376086,0.502,0.45,2,2,1,276,1
1.33327749873,0.163773273037,0.0812614121876,0.0905270482731,0.551,0.45,0,0,1,277,1
0.191250817836,1.23994277125,0.134136129532,0.0581268964164,0.413,0.45,1,1,2,278,1
0.123453447721,0.131536680496,0.375693568212,1.17718068944,0.496,0.45,3,3,1,279,1
0.260501986704,0.229813104374,1.07103545005,0.0758926822739,0.483,0.45,2,2,1,280,1
0.239914612269,1.11788254929,0.204980794421,0.129873311886,0.49,0.45,1,1,1,281,1
0.15648290681,0.124739481929,1.04107854493,0.0700449011774,0.427,0.45,2,2,2,282,1
0.136909232681,0.0846195271451,0.117732897932,1.17109033916,0.355,0.45,3,3,2,283,1
2.00149442239,0.251492755468,0.187243157733,0.0790585958632,0.373,0.45,0,0,2,284,1
0.166592630754,0.121207628376,1.1570012923,0.0975521231719,0.387,0.45,2,2,2,285,1
1.57787653486,0.0691413029726,0.104257470457,0.0234669639844,0.425,0.45,0,0,2,286,1
0.19081735512,0.0793170455598,0.15331165631,1.21220380152,0.438,0.45,3,3,2,287,1
0.441857559946,1.02845527325,0.211700914335,0.100195276252,0.385,0.45,1,1,2,288,1
1.05789042626,0.175950074793,0.0620182166556,0.0590260941651,0.312,0.45,0,0,2,289,1
0.331334792932,0.131688414182,1.12051179296,0.0868398937774,0.38,0.45,2,2,2,290,1
0.159493305629,0.148556105869,0.092330681898,1.00952471651,0.365,0.45,3,3,2,291,1
1.01574781304,0.261973505548,0.171011585116,0.0562211771987,0.387,0.45,1,0,-1,292,1
1.74784249426,0.0547797429223,0.0884018064192,0.0495245067265,0.436,0.45,2,0,-1,293,1
0.112816021154,1.35542795707,0.0267064096562,0.0240609178488,0.608,0.45,1,1,1,294,1
0.122483633429,0.0860345531073,0.0551745763835,1.44705612424,0.51,0.45,3,3,1,295,1
1.93470368094,0.117441525114,0.0482221456362,0.111206980054,0.429,0.45,0,0,2,296,1
0.25873081698,0.229193885931,0.165180718701,1.26131057545,0.486,0.45,3,3,1,297,1
0.377549422469,0.164662614058,1.06613267873,0.11816995277,0.355,0.45,2,2,2,298,1
1.07037869857,0.229104152601,0.162252509365,0.0937219868135,0.434,0.45,0,0,2,299,1
0.13523678909,1.08897008447,0.0978887332322,0.0371785218257,0.569,0.45,1,1,1,300,1
1.46411564178,0.162705410101,0.185436609061,0.105725078447,0.557,0.45,0,0,1,301,1
0.36571238748,1.39063571911,0.191882208591,0.103416769791,0.38,0.45,1,1,2,302,1
0.342323683222,0.143063208278,0.220643040705,1.64845686551,0.424,0.45,3,3,2,303,1
0.255564531287,0.191819950562,1.26744171146,0.15649485145,0.339,0.45,2,2,2,304,1
0.163533635336,0.196279748269,0.109167293243,1.19114025379,0.403,0.45,3,3,2,305,1
1.28355049923,0.240627537981,0.13159025736,0.0676955567614,0.359,0.45,1,0,-1,306,1
0.10633167425,1.09890680022,0.166337751173,0.101190847412,0.402,0.45,2,1,-1,307,1
1.88341252981,0.0488873881528,0.0550666389712,0.177579654608,0.591,0.45,0,0,1,308,1
0.10080911443,0.0893172178675,0.236562940622,1.10652377986,0.511,0.45,3,3,1,309,1
1.50758425677,0.101152378126,0.0966941309167,0.167930071809,0.464,0.45,0,0,1,310,1
0.366827778942,0.137464823507,1.09438417869,0.25576700872,0.441,0.45,2,2,2,311,1
0.2935484602,1.02394749685,0.108385325607,0.106095175736,0.403,0.45,1,1,2,312,1
1.84924086334,0.370093712251,0.0810060122855,0.0975099140588,0.469,0.45,0,0,1,313,1
0.193830804675,0.15333360289,1.12928848886,0.219880497962,0.57,0.45,2,2,1,314,1
1.11205738473,0.180125136991,0.154980642132,0.120487355593,0.445,0.45,1,0,-1,315,1
0.130230374875,0.191020544017,0.13854299817,1.41334289454,0.512,0.45,3,3,1,316,1
0.149010832386,0.247931955485,1.02175216988,0.18360326708,0.438,0.45,2,2,2,317,1
0.102625511986,0.13327209976,0.170851760564,1.08380328353,0.551,0.45,3,3,1,318,1
0.132679556492,1.52239756522,0.139997080566,0.109914050279,0.607,0.45,1,1,1,319,1
0.062529263581,0.203763392366,0.13419802736,1.0355313594,0.445,0.45,2,3,-1,320,1
1.47070193902,0.348369302343,0.173040578408,0.135756033026,0.699,0.45,0,0,1,321,1
0.0957895398652,1.12035536933,0.154844561139,0.117561419738,0.565,0.45,1,1,1,322,1
1.19265929252,0.0545482105527,0.169694861071,0.167537158574,0.491,0.45,0,0,1,323,1
0.0445001876113,0.0513037981484,0.127409171479,1.25954391029,0.45,0.45,3,3,1,324,1
1.67035475593,0.0979558420821,0.144273507981,0.0653457262783,0.449,0.45,0,0,2,325,1
0.218415045746,0.111297083143,1.01433870765,0.0763180268102,0.565,0.45,3,2,-1,326,1
0.135241130379,1.25554836992,0.191873659839,0.203398700409,0.676,0.45,1,1,1,327,1
0.0789955030187,0.0798600905664,1.07194489749,0.123299227979,0.6,0.45,2,2,1,328,1
0.149182321792,1.26011685555,0.201968800836,0.15604549572,0.562,0.45,1,1,1,329,1
0.0557286177088,0.0399754009825,0.164254231364,1.00173573136,0.451,0.45,3,3,1,330,1
0.06741002849,0.186094309911,1.01536414529,0.134166158814,0.412,0.45,2,2,2,331,1
1.28443766231,0.183471019937,0.112291356488,0.11682193474,0.414,0.45,0,0,2,332,1
0.176830081637,1.22203325711,0.169140382979,0.0938597147729,0.383,0.45,1,1,2,333,1
1.82812918985,0.134243636736,0.198563862818,0.0638959226296,0.466,0.45,0,0,1,334,1
0.255417003598,0.105710034343,1.10859801098,0.091508444956,0.469,0.45,2,2,1,335,1
0.143392167747,0.10057314342,0.0999040046948,1.1803739018,0.397,0.45,3,3,2,336,1
1.13806900352,0.245135916882,0.239479733721,0.10728843332,0.422,0.45,0,0,2,337,1
0.331201316486,0.692363221126,0.0913937335803,0.110108723691,0.7,0.45,1,-1,0,339,1
0.125745783168,0.22933044661,0.100657860636,1.40298284765,0.5,0.45,3,3,1,339,1
0.412503028382,1.03318145173,0.26414072762,0.0879228943965,0.433,0.45,2,1,-1,340,1
1.30291957273,0.262843446323,0.0794844800245,0.12008905225,0.513,0.45,1,0,-1,341,1
0.113162220102,0.0805716060441,1.00049591499,0.0643811467024,0.693,0.45,2,2,1,342,1
0.126104499738,0.103835973735,0.120497168702,1.20872368518,0.512,0.45,3,3,1,343,1
1.24256761742,0.206835012097,0.106310977197,0.153777571276,0.474,0.45,1,0,-1,344,1
1.76277926667,0.283430019225,0.16324823974,0.0674766938042,0.607,0.45,0,0,1,345,1
0.0379140408742,0.131579625756,1.00254387925,0.110357884915,0.514,0.45,2,2,1,346,1
1.84465743707,0.125877623362,0.14746378187,0.127813194087,0.412,0.45,0,0,2,347,1
0.125762715973,0.091176253116,0.155215880815,1.07088118555,0.47,0.45,3,3,1,348,1
1.40885645686,0.187198622441,0.128855402788,0.0305868988368,0.418,0.45,0,0,2,349,1
0.235594159615,0.116433441478,0.0986825529718,1.20180169514,0.385,0.45,3,3,2,350,1
1.00875562145,0.17131198465,0.0679785021762,0.0991793808073,0.354,0.45,1,0,-1,351,1
0.0843284730949,0.121523547234,1.18968925854,0.0970575147876,0.482,0.45,2,2,1,352,1
0.0742630032836,0.0710227546444,0.0364973926582,1.12434318896,0.417,0.45,3,3,2,353,1
0.0996875202708,0.0631956449452,1.12939860176,0.172237289337,0.591,0.45,2,2,1,354,1
0.0789255535409,1.06153820793,0.0635911994561,0.0682708705351,0.533,0.45,1,1,1,355,1
0.075475879746,0.0982036840675,0.0745382820946,1.17549763744,0.446,0.45,3,3,2,356,1
1.75895295909,0.152366794175,0.143266575936,0.180881137934,0.388,0.45,0,0,2,357,1
0.258676849575,0.149679870803,1.0338432259,0.156993307593,0.378,0.45,2,2,2,358,1
1.01869185698,0.184408453915,0.150337881727,0.0920862113109,0.408,0.45,0,0,2,359,1
0.201172884132,1.07470107213,0.130211684012,0.122066307632,0.48,0.45,1,1,1,360,1
0.0852649500445,0.290177382817,0.218180449885,0.106925787362,0.7,0.45,0,-1,0,362,1
1.30737193011,0.221182154098,0.150224078586,0.0493782226047,0.228,0.45,2,0,-1,362,1
0.0966049329214,0.0713456386568,0.0679812089938,0.862246284625,0.7,0.45,3,-1,0,364,1
0.0826132017487,1.46317382942,0.15365726324,0.125946233144,0.516,0.45,1,1,1,364,1
0.0727403183431,0.166612975474,0.140372928636,1.1404763936,0.413,0.45,3,3,2,365,1
0.231584743611,0.199974069036,1.17713761733,0.156118188609,0.37,0.45,2,2,2,366,1
0.232398943697,1.49118256434,0.176573922678,0.130122617198,0.387,0.45,1,1,2,367,1
1.53591769705,0.181926640614,0.192490423356,0.10748924884,0.33,0.45,0,0,2,368,1
0.324932925061,1.30226415171,0.118658001849,0.104564215253,0.596,0.45,1,1,1,369,1
0.220606748276,0.214489155384,1.07672303712,0.0792167454322,0.423,0.45,2,2,2,370,1
1.12383809394,0.192053628618,0.164447861975,0.103003831524,0.375,0.45,0,0,2,371,1
0.172279211259,0.126287480497,0.186902445303,1.06588794221,0.444,0.45,3,3,2,372,1
1.2543412645,0.217862704428,0.198118428653,0.103245883831,0.438,0.45,0,0,2,373,1
1.16786207651,0.185294017947,0.163354481709,0.122242286363,0.417,0.45,1,0,-1,374,1
0.106723804072,0.216579284822,1.17096721471,0.0763919203535,0.432,0.45,2,2,2,375,1
0.211381905159,0.186511606323,0.180722017641,1.08387470732,0.329,0.45,3,3,2,376,1
1.3318707565,0.331928326321,0.178299347771,0.144066638961,0.359,0.45,2,0,-1,377,1
0.214603052782,1.38860328855,0.240486017634,0.129087065497,0.499,0.45,1,1,1,378,1
0.102923361734,0.177864274224,0.198953829181,1.17342184352,0.412,0.45,3,3,2,379,1
1.6556818815,0.219919300734,0.121291406903,0.211241150788,0.421,0.45,1,0,-1,380,1
1.23250018149,0.294288446425,0.195996536972,0.188119370047,0.558,0.45,0,0,1,381,1
0.0780728570463,0.0732607072027,1.21100705627,0.0722012821281,0.557,0.45,2,2,1,382,1
1.85618494208,0.193587425548,0.237890940399,0.241120828936,0.484,0.45,0,0,1,383,1
0.140799985047,0.210196657625,0.123816391182,1.11541730122,0.505,0.45,3,3,1,384,1
1.48939963959,0.238279168585,0.203320415364,0.0968156654859,0.434,0.45,0,0,2,385,1
0.11410180561,0.159002210042,0.183308690229,1.12915054344,0.476,0.45,3,3,1,386,1
0.156927636646,0.211643152365,1.09449512579,0.0911889783609,0.351,0.45,2,2,2,387,1
0.27719127572,1.44182571343,0.159459097005,0.0866409197175,0.318,0.45,1,1,2,388,1
0.122152816027,0.14110319087,0.14453791903,1.07457547678,0.421,0.45,3,3,2,389,1
0.158246231144,1.24625797217,0.115809164068,0.0871847214883,0.45,0.45,1,1,1,390,1
0.0939523223934,0.0547332544983,0.378302759284,0.0885971173861,0.7,0.45,2,-1,0,392,1
0.0822309547754,0.0475556490255,1.01821010811,0.0474415125885,0.469,0.45,3,2,-1,392,1
1.98123876351,0.135092906964,0.0622820821568,0.109979665364,0.584,0.45,0,0,1,393,1
0.221719266693,0.19723417692,0.212242053605,0.280476266331,0.7,0.45,2,-1,0,395,1
1.22782390461,0.158797362024,0.103367415603,0.156631829462,0.624,0.45,0,0,1,395,1
0.100437855057,1.47709557016,0.132155593036,0.134930144487,0.57,0.45,1,1,1,396,1
1.20906627033,0.144423856632,0.120757776722,0.0397016842587,0.661,0.45,0,0,1,397,1
0.160921711293,0.101900912042,0.137518090359,1.02685078792,0.534,0.45,3,3,1,398,1
0.227601485724,0.193692073849,1.00254185891,0.112776972727,0.427,0.45,2,2,2,399,1
0.253874241614,1.26464724805,0.124272577087,0.0814805152022,0.395,0.45,1,1,2,400,1
0.184872523461,0.163039208214,1.07355217852,0.0576792217555,0.442,0.45,2,2,2,401,1
0.295498566896,0.181540640224,0.174468591654,1.05157486859,0.355,0.45,3,3,2,402,1
0.565210592151,1.01710942415,0.213378768137,0.12800099137,0.367,0.45,1,1,2,403,1
1.14906989751,0.164001608838,0.181285528198,0.160750892297,0.414,0.45,0,0,2,404,1
0.255641912273,1.01988673257,0.195910954724,0.119790809126,0.367,0.45,1,1,2,405,1
0.273421106626,0.163441123826,0.162838471144,0.0752519339887,0.7,0.45,3,-1,0,407,1
1.62627909668,0.224158061218,0.13961184198,0.0924618648572,0.505,0.45,0,0,1,407,1
0.293258538987,0.174193131793,1.10737716109,0.103789645568,0.503,0.45,2,2,1,408,1
1.01882796763,0.139593041318,0.121516032575,0.0607208658905,0.412,0.45,0,0,2,409,1
0.423002231955,1.14958192868,0.183692859835,0.103456895514,0.474,0.45,1,1,1,410,1
0.200252612204,0.0899215508677,0.240131498999,1.02525556434,0.555,0.45,3,3,1,411,1
0.241381393402,0.173046866811,1.09998949097,0.126579442252,0.522,0.45,2,2,1,412,1
0.174583147894,0.245052703176,0.211853378234,0.079104715398,0.7,0.45,3,-1,0,414,1
0.137629121705,0.168277570095,0.150263526062,1.07914190779,0.101,0.45,1,3,-1,414,1
0.196299216882,0.27797428197,1.03296729812,0.103001064527,0.546,0.45,2,2,1,415,1
1.65909556085,0.179292935922,0.204569669606,0.222842341074,0.494,0.45,0,0,1,416,1
0.191515921504,0.211152992842,0.13793469788,1.23616199572,0.477,0.45,3,3,1,417,1
1.6073040747,0.245518318377,0.199198232726,0.010785321993,0.388,0.45,0,0,2,418,1
0.323810714538,0.217116818771,0.211779957176,1.52642059257,0.351,0.45,2,3,-1,419,1
0.341028742026,0.174286968853,1.05929636837,0.190137134329,0.556,0.45,1,2,-1,420,1
1.19349123262,0.348988453644,0.0911435191722,0.0978650044627,0.5,0.45,0,0,1,421,1
0.127953999364,0.141173543218,1.09093559917,0.129813681142,0.549,0.45,2,2,1,422,1
0.195091468711,0.235138262475,0.153723115233,1.15800413783,0.514,0.45,3,3,1,423,1
1.45862277618,0.27402652376,0.184092711569,0.0254829931162,0.405,0.45,1,0,-1,424,1
0.161580214075,0.0955029948033,0.196080243217,1.06065125177,0.439,0.45,3,3,2,425,1
0.150055428181,0.0872357889051,0.276051447234,0.0697314365728,0.7,0.45,2,-1,0,427,1
0.192135006002,0.07121075671,1.22261193858,0.0802474506796,0.295,0.45,1,2,-1,427,1
2.0062772951,0.344194086646,0.132343974632,0.104720976858,0.523,0.45,0,0,1,428,1
0.0893824093773,0.108861313363,0.164935902167,1.00650591383,0.659,0.45,3,3,1,429,1
1.07770269361,0.21976398634,0.13127594636,0.09894761152,0.508,0.45,0,0,1,430,1
0.314491743928,1.17658479494,0.163227175453,0.0733739169926,0.453,0.45,1,1,1,431,1
0.28614153148,0.220150208665,1.04899782993,0.140134651994,0.41,0.45,2,2,2,432,1
1.93750602431,0.198256904588,0.180948557084,0.114013268933,0.432,0.45,0,0,2,433,1
0.238919931513,0.163734918154,1.0693376072,0.158422177828,0.546,0.45,2,2,1,434,2
0.207533572648,1.17291988997,0.120789949038,0.150624751236,0.36,0.45,1,1,2,435,2
0.264816504253,0.177625493747,0.126248543557,1.05428912148,0.405,0.45,3,3,2,436,2
1.88785310428,0.228363489191,0.110176549652,0.0820745958313,0.359,0.45,0,0,2,437,2
0.154899294523,1.07529454774,0.165391015372,0.116998482808,0.405,0.45,1,1,2,438,2
1.34192088787,0.190669429194,0.182770443045,0.106588231911,0.38,0.45,0,0,2,439,2
0.216244889315,0.0974415792948,0.339536176455,1.07063001291,0.473,0.45,3,3,1,440,2
0.245275135245,0.218346529964,1.12258668159,0.115785513281,0.332,0.45,2,2,2,441,2
1.20660246003,0.271037209565,0.170747311601,0.052902689356,0.382,0.45,0,0,2,442,2
0.344585831433,0.141986557607,0.274752901914,0.0243628768076,0.7,0.45,2,-1,0,444,2
0.272311467759,0.112055091367,1.1200971108,0.053798272627,0.17,0.45,3,2,-1,444,2
0.14742905604,0.153991405965,1.00726093667,0.0914259632561,0.336,0.45,1,2,-1,445,2
0.166776609678,0.19549268358,1.31503225254,0.0978686338971,0.53,0.45,2,2,1,446,2
0.102808151076,0.158548973696,0.22054411722,1.04807968627,0.384,0.45,3,3,2,447,2
1.74525601925,0.213002017351,0.198592277153,0.0544369488923,0.382,0.45,0,0,2,448,2
0.401950353694,1.34416375922,0.174987008149,0.0772273660624,0.357,0.45,1,1,2,449,2
1.00967054461,0.266547579684,0.105877492258,0.0629523706101,0.498,0.45,0,0,1,450,2
0.26337650866,0.194302038088,1.1691901178,0.40627507776,0.527,0.45,3,2,-1,451,2
0.382716571988,1.15553102237,0.0440904659301,0.0722999538655,0.605,0.45,1,1,1,452,2
0.0716048829717,0.145857442721,0.166152100529,1.28810366846,0.646,0.45,3,3,1,453,2
0.156029958434,0.167182124557,1.15975923779,0.090252500566,0.426,0.45,2,2,2,454,2
0.159021859039,1.39098464004,0.148916128023,0.0403140129562,0.374,0.45,1,1,2,455,2
0.0734898012695,0.0910429398376,1.08225040034,0.0430416987931,0.402,0.45,2,2,2,456,2
1.00828557994,0.0824221857428,0.384452821042,0.0152922815642,0.361,0.45,0,0,2,457,2
0.247531366258,0.0941655790948,1.07451737516,0.0624311661796,0.417,0.45,2,2,2,458,2
1.42152303017,0.146156711194,0.152576588298,0.0737698697652,0.438,0.45,1,0,-1,459,2
0.0838695760234,0.109069705713,0.0859121874832,1.00647096003,0.379,0.45,3,3,2,460,2
1.05131099498,0.17153004948,0.199518947905,0.0966474108592,0.43,0.45,0,0,2,461,2
0.147464126121,0.113224019282,0.180763856163,1.00789731788,0.485,0.45,3,3,1,462,2
1.51174815317,0.20482876152,0.141413080264,0.0109040610601,0.439,0.45,1,0,-1,463,2
1.43349500743,0.11118980638,0.152783077428,0.016953655986,0.531,0.45,0,0,1,464,2
0.134256242248,0.0960495089013,1.01972281249,0.110142785952,0.524,0.45,2,2,1,465,2
0.0881782148405,0.155458853955,0.173063647765,1.08165892497,0.529,0.45,3,3,1,466,2
0.145725558122,0.150258754627,1.00510394117,0.0321679961701,0.475,0.45,2,2,1,467,2
1.2270011733,0.155270848634,0.143691133381,0.0741396255547,0.443,0.45,0,0,2,468,2
0.182263435633,1.14241233396,0.168235049997,0.0247282207383,0.357,0.45,1,1,2,469,2
0.0597699169283,0.0925399345044,1.08250857743,0.077207945682,0.46,0.45,2,2,1,470,2
1.35653413391,0.0549371222586,0.194150859809,0.0908897545627,0.396,0.45,0,0,2,471,2
0.169221216059,0.0827208903481,1.15585536174,0.060207413926,0.385,0.45,3,2,-1,472,2
0.23583011024,1.15579194856,0.0610882523889,0.0737321360173,0.511,0.45,1,1,1,473,2
1.089458664,0.184177111758,0.134215393407,0.0978613746876,0.46,0.45,0,0,1,474,2
1.31567732515,0.172365011347,0.179009007621,0.124995673287,0.588,0.45,1,0,-1,475,2
0.112322569656,0.0857295591373,0.11631092833,1.05286841525,0.624,0.45,3,3,1,476,2
0.143510341066,0.170481617883,1.12354401347,0.11381559704,0.512,0.45,2,2,1,477,2
0.152914967085,0.348565774525,0.241190790038,0.103283859528,0.7,0.45,3,-1,0,479,2
1.4841301425,0.294974409436,0.178405987322,0.0253849854712,0.617,0.45,0,0,1,479,2
0.261921936722,0.222814873633,1.21781690862,0.0882245005708,0.448,0.45,2,2,2,480,2
1.39319288321,0.212919051116,0.129954395259,0.0211852661051,0.414,0.45,1,0,-1,481,2
0.11189216725,0.0578445441499,1.02310545711,0.197099368295,0.553,0.45,2,2,1,482,2
0.0909815420658,0.0955059631399,0.0793595519275,1.17895043144,0.516,0.45,3,3,1,483,2
1.9327917146,0.232422663226,0.222302976639,0.153357843735,0.461,0.45,0,0,1,484,2
0.258123206428,1.03242365369,0.28458019754,0.0785327441033,0.481,0.45,1,1,1,485,2
1.4441871689,0.25919697059,0.21200897319,0.056532454569,0.608,0.45,0,0,1,486,2
0.20505480426,0.194822981632,0.150889288726,1.30521394638,0.48,0.45,3,3,1,487,2
0.175676767585,1.08298061774,0.254318328988,0.0221914985078,0.465,0.45,1,1,1,488,2
0.110780607395,0.0721905021276,0.0926712916499,1.25841610511,0.467,0.45,3,3,1,489,2
0.183052331651,0.181042785907,1.31241197432,0.144324056984,0.361,0.45,2,2,2,490,2
1.33513113811,0.227996404203,0.17040328329,0.0432102443619,0.365,0.45,1,0,-1,491,2
0.0866722058464,0.0431284992197,1.14264952199,0.0300542145102,0.536,0.45,2,2,1,492,2
1.79104315085,0.293692573048,0.204728632976,0.0534555270341,0.42,0.45,0,0,2,493,2
0.11284461502,0.118863513243,1.1661979455,0.0450934614278,0.424,0.45,2,2,2,494,2
0.138585076413,0.0533239950517,0.084336240466,1.32765771752,0.434,0.45,3,3,2,495,2
1.73330305822,0.0936921208201,0.0895007382907,0.100137656833,0.403,0.45,0,0,2,496,2
0.166232788572,1.09557039175,0.155144187259,0.0507805550249,0.323,0.45,1,1,2,497,2
0.140880321057,0.11812306433,0.272890893137,1.00835018998,0.507,0.45,3,3,1,498,2
1.3170937465,0.288214397985,0.110241364552,0.0258836725879,0.461,0.45,1,0,-1,499,2
1.10643092178,0.0747515738525,0.122532826902,0.0311419857964,0.397,0.45,0,0,2,500,2
0.125534557032,0.202036016928,1.07723786834,0.0659452932655,0.382,0.45,2,2,2,501,2
1.40369553368,0.250391060847,0.159768046577,0.0101825256775,0.368,0.45,1,0,-1,502,2
0.180714948895,1.07452618885,0.171785313079,0.0577053136276,0.355,0.45,2,1,-1,503,2
2.06282757682,0.050926097002,0.135154653867,0.0528286136162,0.594,0.45,0,0,1,504,2
0.180073011974,0.111502810312,0.184514563978,1.05681333188,0.608,0.45,3,3,1,505,2
0.123597099382,0.126061873701,1.23682290305,0.160353385716,0.44,0.45,2,2,2,506,2
0.0895173579302,0.0885144660913,0.14441625716,1.26226070671,0.532,0.45,3,3,1,507,2
1.00701947164,0.133825638979,0.223886589152,0.0495300630154,0.463,0.45,1,0,-1,508,2
1.21670429219,0.0447043392291,0.156122814798,0.0346741931074,0.482,0.45,0,0,1,509,2
0.057521235201,0.133690272803,0.110333328117,0.101725994176,0.7,0.45,1,-1,0,511,2
0.0723643749588,1.38331456413,0.060980085871,0.127648123992,0.168,0.45,3,1,-1,511,2
0.0853952505603,1.07248671895,0.241415789644,0.13962472125,0.399,0.45,0,1,-1,512,2
0.0648746854851,0.0702144259326,0.084618743086,1.06437684703,0.62,0.45,3,3,1,513,2
0.106582863795,0.0789670700964,1.23856452122,0.157154307964,0.453,0.45,2,2,1,514,2
1.41659653161,0.0731675562331,0.170124423691,0.14692144049,0.417,0.45,0,0,2,515,2
0.226203437716,0.0818290262637,1.20871212243,0.369993485446,0.52,0.45,2,2,1,516,2
0.160207825218,1.44752270939,0.153178212012,0.172579766867,0.597,0.45,1,1,1,517,2
0.123535608467,0.0758245182172,1.19390366932,0.0602222012434,0.491,0.45,2,2,1,518,2
1.00378745352,0.137394141045,0.233752966627,0.0339923870261,0.401,0.45,0,0,2,519,2
0.169169130366,0.128620397386,0.314380616268,1.11219160708,0.463,0.45,3,3,1,520,2
0.171651207999,1.00124901743,0.25539697973,0.0259761167058,0.552,0.45,1,1,1,521,2
1.27687975973,0.239449930243,0.0368546633575,0.0970743181332,0.428,0.45,0,0,2,522,2
0.108397226732,1.17103239839,0.0574078976876,0.0827808681664,0.45,0.45,1,1,1,523,2
0.168819404429,0.250442401167,0.0791050699359,1.18879483067,0.413,0.45,3,3,2,524,2
1.28654695095,0.312095867379,0.102241303125,0.0681071747655,0.441,0.45,0,0,2,525,2
0.210330143088,0.10159871663,1.20714823958,0.83611203461,0.556,0.45,2,2,1,526,2
0.112173389549,0.100358978671,0.156501976585,1.25361358128,0.599,0.45,3,3,1,527,2
0.119452569231,0.106069070271,1.21765321131,0.142149873645,0.601,0.45,2,2,1,528,2
0.183911288378,1.13457960916,0.106118912118,0.0733851244019,0.549,0.45,1,1,1,529,2
0.150757427959,0.12076085592,1.13808724164,0.0528357632066,0.422,0.45,2,2,2,530,2
0.143244722726,1.45001278133,0.171629964065,0.103359469061,0.468,0.45,1,1,1,531,2
0.0584263408724,1.23434838055,0.15654173248,0.0379263251845,0.272,0.45,3,1,-1,532,2
0.0508165626249,1.41098855542,0.202511150622,0.12782783447,0.485,0.45,0,1,-1,533,2
0.0536736291649,1.08775800711,0.0700979993696,0.223581746551,0.581,0.45,1,1,1,534,2
1.50874261226,0.0238900332412,0.0859163662475,0.0808087840826,0.453,0.45,0,0,1,535,2
0.0931955415588,0.0234544005265,0.321681468422,1.22288200542,0.512,0.45,3,3,1,536,2
0.197576338624,1.30447906681,0.0944950774097,-0.000175148476979,0.646,0.45,1,1,1,537,2
0.0684131926156,0.0173560024363,1.18558331595,0.08319792932,0.429,0.45,2,2,2,538,2
0.0668526713657,0.0159025284814,1.13085403653,0.192228301916,0.395,0.45,3,2,-1,539,2
1.61500973774,0.00871593374577,0.0226746985677,0.0983318363876,0.38,0.45,2,0,-1,540,2
1.29413799788,0.0104904365591,0.197425560861,0.0809426992759,0.693,0.45,0,0,1,541,2
0.0884958812985,0.0198412256161,1.06229656046,0.167616361809,0.545,0.45,2,2,1,542,2
0.0870916162798,0.00923787827018,0.153260601007,1.21056978138,0.545,0.45,3,3,1,543,2
1.14260099669,0.0332272616014,0.126255949646,0.106372903092,0.454,0.45,1,0,-1,544,2
1.00827129495,0.0500496275104,0.15865076729,0.160061747032,0.546,0.45,0,0,1,545,2
0.0412164509851,0.0473472281091,1.16655373435,0.12995539247,0.531,0.45,3,2,-1,546,2
1.39349125072,0.0480406629546,0.0628475534002,0.154365115464,0.676,0.45,0,0,1,547,2
0.05976488589,0.515184703918,0.132903529879,0.0599426444536,0.7,0.45,1,-1,0,549,2
0.0619992219577,1.04416012642,0.0399559533997,0.111897280084,0.263,0.45,2,1,-1,549,2
1.25509018619,0.0546962691772,0.0548228457432,0.117821605865,0.7,0.45,0,-1,0,551,2
1.25509018619,0.0546962691772,0.0548228457432,0.117821605865,0.00400000000019,0.45,2,0,-1,551,2
0.0815907673842,1.14155639358,0.0415460173245,0.168612487578,0.574,0.45,1,1,1,552,2
0.0597086637184,0.0472806013923,0.121995296205,1.18050144914,0.461,0.45,3,3,1,553,2
0.061088732715,0.069390773937,1.02552158061,0.17495587509,0.369,0.45,2,2,2,554,2
1.41994427831,0.224080308549,0.231857143587,0.154564184104,0.487,0.45,0,0,1,555,2
0.255142837191,1.24848824692,0.215445897792,0.164512721856,0.381,0.45,1,1,2,556,2
0.298074751562,0.116317561213,0.188883032669,1.11302812389,0.478,0.45,3,3,1,557,2
1.30234269919,0.155037816401,0.0863075616235,0.118425165287,0.466,0.45,0,0,1,558,2
0.257565032621,0.186605934125,0.126596575238,1.16650178468,0.459,0.45,3,3,1,559,2
0.164542443839,1.1232431038,0.111517616798,0.109406644988,0.452,0.45,1,1,1,560,2
0.262739013293,0.21700655878,1.0610222398,0.0609274536347,0.442,0.45,2,2,2,561,2
1.5728601096,0.20599464135,0.129574588752,0.105505555403,0.431,0.45,1,0,-1,562,2
1.89207534798,0.0437381190649,0.134400228599,0.0898123497135,0.401,0.45,0,0,2,563,2
0.117000041671,0.0663296518543,1.18888740368,0.227269658342,0.595,0.45,2,2,1,564,2
0.29785985831,0.158485807396,0.18984192003,1.00127252377,0.363,0.45,3,3,2,565,2
0.105141890184,0.0999585054117,1.32368264788,0.065690635948,0.389,0.45,2,2,2,566,2
0.240342417482,1.2696641252,0.205974273928,0.119442696023,0.422,0.45,1,1,2,567,2
1.0730407726,0.156487405531,0.171077466347,0.100270443215,0.308,0.45,0,0,2,568,2
0.332568583062,0.197851517362,1.13174735788,0.124798946882,0.368,0.45,3,2,-1,569,2
0.171947333538,1.06108526036,0.0853569175662,0.0603345589862,0.545,0.45,0,1,-1,570,2
0.205097235765,1.36590745129,0.188825707362,0.0997478932535,0.614,0.45,1,1,1,571,2
0.352115884526,0.103884625216,0.202612484728,1.34608055588,0.541,0.45,3,3,1,572,2
0.147370043069,0.0401872615557,1.26763680125,0.057181418285,0.697,0.45,2,2,1,573,2
0.160668479166,0.0372722517115,0.0887348893715,1.29507441143,0.661,0.45,3,3,1,574,2
1.08251009377,0.0367743230559,0.0845390635286,0.0930547158503,0.551,0.45,1,0,-1,575,2
0.138915603041,0.0628313536931,1.03176221692,0.0431123411247,0.468,0.45,2,2,1,576,2
1.63273221752,0.0365901038247,0.076636894476,0.072275233107,0.358,0.45,0,0,2,577,2
0.0287447461655,0.0444058351049,1.22668706904,0.0879593152025,0.404,0.45,2,2,2,578,2
1.19530316847,0.0466482183925,0.211304455617,0.0866801109729,0.484,0.45,0,0,1,579,2
0.0466207850369,1.11900776966,0.168863192153,0.113297364333,0.659,0.45,1,1,1,580,2
0.0412239260052,0.0576869626729,0.0860775954512,1.04353969693,0.498,0.45,3,3,1,581,2
1.14555841923,0.0830901088014,0.109396950092,0.0447296665359,0.443,0.45,1,0,-1,582,2
1.29261656977,0.0404634754819,0.114346865159,0.0878722902357,0.449,0.45,0,0,2,583,2
0.0247355770856,0.0595590392741,0.066608652114,1.10738286458,0.509,0.45,3,3,1,584,2
0.0382027564154,0.0745764621053,1.08748685742,0.106537123614,0.403,0.45,2,2,2,585,2
0.0213426728498,0.040968604973,0.105357207059,1.11900006179,0.538,0.45,3,3,1,586,2
1.60034535457,0.0393715858468,0.0938725912391,0.0698813778856,0.433,0.45,0,0,2,587,2
0.0684603260349,0.0987201198809,1.06994694967,0.142954827031,0.515,0.45,2,2,1,588,2
0.0871887123764,1.46322487573,0.197740043356,0.0263706622659,0.377,0.45,1,1,2,589,2
0.0462009948865,0.048205094855,1.11908553932,0.0481499234262,0.367,0.45,2,2,2,590,2
0.049049146849,0.0511730768282,0.200651770826,1.22903205968,0.337,0.45,3,3,2,591,2
0.167717033451,1.18358686319,0.175013641893,0.113004358397,0.523,0.45,1,1,1,592,2
1.74703056107,0.0254672376941,0.157509281352,0.0755961899309,0.35,0.45,0,0,2,593,2
0.0911479576556,1.18417440758,0.176897394141,0.155140452321,0.491,0.45,1,1,1,594,2
0.109685488815,0.0949993252062,0.190145170544,1.31418613939,0.421,0.45,3,3,2,595,2
1.27219539793,0.153424129765,0.155847155079,0.106242379798,0.392,0.45,0,0,2,596,2
0.129504855238,0.029751639628,0.111305445022,1.0973223773,0.479,0.45,3,3,1,597,2
0.119740203755,0.028118714669,1.0478681922,0.0269514806362,0.352,0.45,2,2,2,598,2
0.33481935107,1.12065793703,0.121462663856,0.124718643305,0.324,0.45,1,1,2,599,2
0.147144777836,0.0972472076072,1.18715940687,0.0527385465706,0.372,0.45,2,2,2,600,2
1.01744808175,0.104759457031,0.142026092516,0.0742938175465,0.358,0.45,0,0,2,601,2
0.433511346473,0.176318899949,1.16530544468,0.0647597915973,0.335,0.45,2,2,2,602,2
1.42607191118,0.0441044060842,0.267665282528,0.0571320515838,0.404,0.45,0,0,2,603,2
0.183094944525,1.23234022285,0.0766891630346,0.112502795788,0.484,0.45,1,1,1,604,2
0.124645695526,0.0556924768494,0.210752539366,1.20508862321,0.491,0.45,3,3,1,605,2
1.11230249543,0.307670148327,0.128114906548,0.0929013407757,0.463,0.45,1,0,-1,606,2
1.07997485495,0.0391290883669,0.0457870963804,0.0556275714453,0.377,0.45,0,0,2,607,2
0.0723536303452,0.0421732217748,1.07337607993,0.006026786094,0.398,0.45,3,2,-1,608,2
0.183593873889,0.0465814988639,1.10459878718,0.0997748355665,0.603,0.45,2,2,1,609,2
1.32212971777,0.0468238352578,0.114802732343,0.0220616206909,0.475,0.45,1,0,-1,610,2
0.0656880807373,0.0375535476217,1.22565470887,0.0506355276013,0.53,0.45,2,2,1,611,2
0.061561515416,0.0519994652566,0.0395504586465,0.02439947985,0.7,0.45,3,-1,0,613,2
1.50987577367,0.0539524956733,0.100779756694,0.0731189839862,0.442,0.45,0,0,2,613,2
0.105332707328,1.11418716348,0.486225197714,0.0681722760525,0.519,0.45,2,1,-1,614,2
1.24085887664,0.0734469950033,0.441316398831,0.0665225110028,0.63,0.45,0,0,1,615,2
0.137090779377,0.0354239516645,0.122085948069,1.33591522594,0.57,0.45,3,3,1,616,2
0.0885376226814,1.21960139059,0.327488324987,0.0304486732935,0.532,0.45,1,1,1,617,2
1.17809213429,0.0605687408415,0.0710045982159,0.0422795968609,0.495,0.45,0,0,1,618,2
0.114431515614,1.33942020521,0.0670604659433,0.0299423555755,0.496,0.45,1,1,1,619,2
0.045583262359,0.0542639513686,0.0658245042301,0.755528449313,0.7,0.45,3,-1,0,621,2
0.0454158630028,0.054500365196,0.0263913904398,1.23539686499,0.255,0.45,2,3,-1,621,2
0.0668096525089,0.821410639043,1.04121865462,0.0394129647089,0.0530000000002,0.45,1,2,-1,622,2
0.0550568184063,0.0609669207288,1.00853570544,0.0592064730991,0.461,0.45,2,2,1,623,2
0.0452152148954,0.0334341167543,0.109609860393,1.0804749129,0.437,0.45,3,3,2,624,2
1.38650278165,0.0984346937624,0.190451130142,0.0630679220462,0.455,0.45,0,0,1,625,2
0.225822430606,0.0843415591093,1.10176711653,0.0948096050623,0.379,0.45,2,2,2,626,2
0.181028584729,1.07495732347,0.115004552109,0.0409026428459,0.493,0.45,1,1,1,627,2
0.0468623716625,0.0219225343848,0.165314606686,1.17196910036,0.552,0.45,3,3,1,628,2
1.63069835598,0.151746725824,0.124865489982,0.119724332222,0.479,0.45,0,0,1,629,2
0.263015163568,1.00256004219,0.208873288532,0.122293178807,0.407,0.45,1,1,2,630,2
1.62157113662,0.183844334737,0.205749645826,0.141725834912,0.451,0.45,0,0,1,631,2
0.142222705904,0.147393655516,0.123620816137,1.04804525897,0.443,0.45,3,3,2,632,2
0.233197122515,0.255112939719,1.05107248891,0.140167453874,0.341,0.45,2,2,2,633,2
0.155608022057,0.14025944981,0.0845111112428,1.03085688353,0.518,0.45,3,3,1,634,2
1.49286638045,0.182074342905,0.135562178904,0.111263962549,0.408,0.45,1,0,-1,635,2
0.0879460957079,0.0998647610684,1.19428076664,0.105528444037,0.559,0.45,2,2,1,636,2
1.48797386298,0.0269959955421,0.125812497417,0.0286272509438,0.429,0.45,0,0,2,637,2
0.0957923214348,0.121847577509,1.23911267377,0.122783801189,0.543,0.45,2,2,1,638,2
0.100699483935,1.12944443326,0.104397290794,0.0394625361856,0.4,0.45,1,1,2,639,2
1.75884155918,0.170110724469,0.171251314688,0.0445538817791,0.321,0.45,0,0,2,640,2
0.168938071075,0.232414122321,0.198770685088,0.101770108541,0.7,0.45,3,-1,0,642,2
0.438134392345,0.209139230149,0.269114653199,1.39453033117,0.258,0.45,0,3,-1,642,2
0.280009158847,0.176581919044,1.07711792622,0.149475802403,0.573,0.45,1,2,-1,643,2
0.107341942445,0.0547978201079,0.0567718004775,1.19501547635,0.462,0.45,3,3,1,644,2
0.109881076074,1.10753236414,0.196750626296,0.0250413083312,0.408,0.45,1,1,2,645,2
0.266970740869,0.140214530608,1.05660391253,0.0220695094749,0.435,0.45,2,2,2,646,2
1.11972407644,0.240108465556,0.103098587163,0.0571942090218,0.386,0.45,0,0,2,647,2
0.238059712153,0.20563798166,1.09220424951,0.449209599074,0.422,0.45,2,2,2,648,2
0.128103678098,0.111195138694,0.198913344851,1.15862421246,0.362,0.45,3,3,2,649,2
0.130152498828,0.205033092518,1.15984568763,0.0466878197695,0.375,0.45,2,2,2,650,2
0.243978579495,1.43932974735,0.345170843303,0.22211946847,0.586,0.45,1,1,1,651,3
0.187887928992,1.07626753118,1.03177377971,0.0607758264047,0.166,0.45,0,1,-1,652,3
0.210655087797,0.165363161268,0.184576046175,1.68208910855,0.465,0.45,3,3,1,653,3
0.212872226215,0.188948174412,1.54668673252,0.0590975800505,0.361,0.45,2,2,2,654,3
0.0975350410516,0.215508049877,0.413911437913,1.19437191769,0.402,0.45,3,3,2,655,3
1.36211412742,0.206135236723,0.141991306504,0.0813997243816,0.413,0.45,0,0,2,656,3
0.124691079019,0.138861862943,1.13501666242,0.0540936947756,0.409,0.45,2,2,2,657,3
0.357030975225,1.40617412549,0.153867016156,0.0923439442549,0.531,0.45,1,1,1,658,3
0.102227750157,0.108330564602,0.432365375518,1.44337913458,0.492,0.45,3,3,1,659,3
0.123925376727,1.12002460567,0.132149532037,0.0984468505127,0.408,0.45,1,1,2,660,3
0.0862152936512,0.202342004499,1.27371012117,0.113415905627,0.406,0.45,2,2,2,661,3
1.63993434504,0.214210137056,0.102980756832,0.120548618773,0.403,0.45,0,0,2,662,3
0.334060473226,1.10708450417,0.209575657176,0.147617761142,0.431,0.45,1,1,2,663,3
0.0781136214213,0.174219915283,0.249968820054,1.36587325354,0.445,0.45,3,3,2,664,3
1.29971053686,0.274794906299,0.151897663101,0.100775370842,0.41,0.45,0,0,2,665,3
0.216297613356,0.109259066178,1.02699018021,0.075359681601,0.385,0.45,2,2,2,666,3
0.0922747867784,0.0762749079256,0.259389913443,1.09051009624,0.417,0.45,3,3,2,667,3
0.276572237119,0.145864674707,1.09905375593,0.200087501134,0.364,0.45,2,2,2,668,3
1.37570931236,0.180004189076,0.160932352194,0.136874973563,0.456,0.45,0,0,1,669,3
0.195153927414,1.35684712936,0.177187983133,0.126205551714,0.37,0.45,1,1,2,670,3
1.67643603721,0.171681116038,0.14305399785,0.098770171152,0.457,0.45,0,0,1,671,3
0.154955704738,0.0817563121504,0.214496353378,1.26252139246,0.463,0.45,3,3,1,672,3
0.735955383206,1.09486499987,0.104920807759,0.199048333261,0.414,0.45,1,1,2,673,3
0.184431191372,0.0246527245465,1.04941820041,0.140212342174,0.456,0.45,2,2,1,674,3
1.58746651883,0.0820641959626,0.125261539049,0.163572090245,0.422,0.45,1,0,-1,675,3
1.47650700336,0.103063824018,0.185533494617,0.132438261582,0.568,0.45,0,0,1,676,3
0.0517345130042,0.0393052467138,0.0928869326036,1.17602171033,0.491,0.45,3,3,1,677,3
0.115972271166,0.0664370183645,1.18029879911,0.19837203355,0.356,0.45,2,2,2,678,3
0.0677379638632,0.118275951278,0.0442361503845,1.4410053043,0.446,0.45,3,3,2,679,3
1.29267523177,0.16815254681,0.0953721300737,0.166956637552,0.468,0.45,0,0,1,680,3
0.171435433537,0.0898591915561,1.36141135723,0.20285838776,0.367,0.45,2,2,2,681,3
0.228445573102,1.12375413888,0.128358826433,0.15271371275,0.454,0.45,1,1,1,682,3
0.07615589604,0.189879378144,0.153440553847,1.04788700531,0.345,0.45,3,3,2,683,3
0.239807528856,1.59403468453,0.123305024318,0.172049079841,0.368,0.45,1,1,2,684,3
0.133389568589,0.0797094385997,1.26489514751,0.0619712659856,0.417,0.45,2,2,2,685,3
1.5864555145,0.112490894058,0.115400108732,0.099845957784,0.391,0.45,0,0,2,686,3
0.180821799877,1.49303553772,0.244822417171,0.11045832648,0.484,0.45,1,1,1,687,3
0.0891278221544,0.15800470057,0.044488331281,1.29045243315,0.361,0.45,3,3,2,688,3
0.160040643683,0.169114934798,1.01208467962,0.151371041278,0.355,0.45,2,2,2,689,3
0.132886559137,1.08400858947,0.147856619713,0.109636997944,0.386,0.45,0,1,-1,690,3
0.115097768243,0.031529359603,0.178351978072,1.06555929453,0.429,0.45,3,3,2,691,3
1.51289070162,0.092029540786,0.146827444215,0.190165259406,0.435,0.45,0,0,2,692,3
0.125036810339,0.100622345751,1.22214399489,0.161841727694,0.392,0.45,2,2,2,693,3
0.146115253995,1.25997792012,0.141071739593,0.167556299091,0.36,0.45,1,1,2,694,3
0.0691590808041,0.116449393827,1.09538675263,0.0625696734652,0.395,0.45,2,2,2,695,3
0.142371952328,0.12488319741,0.150244236832,1.02178955125,0.319,0.45,3,3,2,696,3
1.00824476851,0.182292651762,0.10017397042,0.0622360234596,0.411,0.45,1,0,-1,697,3
1.45386739934,0.0314677197854,0.0454659014082,0.1120191681,0.419,0.45,0,0,2,698,3
0.0584368648728,1.44208604051,0.106658966694,0.113745084826,0.52,0.45,1,1,1,699,3
0.0615092957077,0.0349436978481,1.35803183016,0.0956590098176,0.366,0.45,2,2,2,700,3
1.35537270549,0.102473165895,0.126379215365,0.116077937365,0.353,0.45,0,0,2,701,3
0.167883211381,0.109688953484,0.199596726887,1.42881376184,0.343,0.45,3,3,2,702,3
1.8116453232,0.239489391984,0.170929617114,0.168105730901,0.411,0.45,0,0,2,703,3
0.203261597924,0.179911068246,1.18070542292,0.111927622825,0.328,0.45,2,2,2,704,3
0.124724925638,0.176824484115,0.142980063041,1.22281546117,0.393,0.45,3,3,2,705,3
0.135960273672,0.117401986639,1.08845603077,0.0721434029218,0.441,0.45,2,2,2,706,3
0.235778894652,1.24704191059,0.160234084595,0.113377080561,0.319,0.45,1,1,2,707,3
1.35587779156,0.132014667228,0.130700907575,0.139221937314,0.392,0.45,0,0,2,708,3
1.09861021735,0.0666298379128,0.142458168632,0.165330057454,0.425,0.45,1,0,-1,709,3
0.0955415215184,0.155330541391,0.0668524217848,1.19727359277,0.459,0.45,3,3,1,710,3
0.832127381777,1.41247212724,0.0920020958602,0.110485318635,0.446,0.45,1,1,2,711,3
1.20575249763,0.0236935932638,0.0565068768444,0.0808896119792,0.136,0.45,3,0,-1,712,3
1.19568035579,0.0248015429235,0.0447780806243,0.220777092391,0.258,0.45,2,0,-1,713,3
1.11821399048,0.0217081596888,0.134287354252,0.16671651755,0.313,0.45,0,0,2,714,3
0.0733727222936,0.0149528559582,0.131623750126,1.14926924407,0.501,0.45,3,3,1,715,3
1.37477870411,0.12860053261,0.147121334657,0.146952866909,0.43,0.45,0,0,2,716,3
0.235494022936,0.166503745801,1.26679617601,0.169145954274,0.37,0.45,2,2,2,717,3
0.142101918205,0.128340427656,0.207773320788,1.30826767958,0.397,0.45,3,3,2,718,3
0.122781626475,1.21112523591,0.16785842121,0.173254239079,0.443,0.45,1,1,2,719,3
0.173451882255,0.19242754004,1.21280528387,0.0623950200187,0.393,0.45,2,2,2,720,3
0.33828761185,1.25111595618,0.0696305579016,0.0984243665637,0.517,0.45,1,1,1,721,3
1.72219969576,0.132089359773,0.0693987951929,0.13715912589,0.378,0.45,0,0,2,722,3
0.136165168273,1.3736904767,0.128582179894,0.143442747844,0.478,0.45,1,1,1,723,3
1.82643835963,0.208933507055,0.0886021728018,0.0695630020636,0.452,0.45,0,0,1,724,3
0.142835089693,0.0856032473772,0.267281100161,1.04264642587,0.46,0.45,3,3,1,725,3
0.105820085219,0.405738634414,1.03063775928,0.209438638871,0.48,0.45,2,2,1,726,3
1.00971212915,0.0872428440557,0.0300320365146,0.108876623434,0.409,0.45,0,0,2,727,3
0.147324050388,0.0331437398496,1.42857955856,0.065033183666,0.336,0.45,2,2,2,728,3
0.114483232793,0.0446541626158,0.0747610516545,1.02302446568,0.381,0.45,3,3,2,729,3
0.248094034172,1.42106932543,0.0772228579484,0.120107896853,0.341,0.45,1,1,2,730,3
0.134234225067,0.114982485349,1.26024549086,0.100827743693,0.394,0.45,2,2,2,731,3
1.46089834594,0.0721728185292,0.10639136361,0.0694805953928,0.374,0.45,1,0,-1,732,3
0.0473622186623,0.0546927665426,0.0986956120016,1.20006226095,0.401,0.45,3,3,2,733,3
1.12801152147,0.163536022172,0.122730241629,0.146545476123,0.436,0.45,0,0,2,734,3
0.168778992955,1.38402795586,0.128284316483,0.0809692204103,0.467,0.45,1,1,1,735,3
1.60777974997,0.179601284632,0.0561418399109,0.0520391074991,0.441,0.45,0,0,2,736,3
0.0652538559754,0.0413288965141,0.061718994617,1.01138314402,0.467,0.45,3,3,1,737,3
0.0742910430434,0.0743891366505,1.27492358203,0.140325646626,0.367,0.45,2,2,2,738,3
0.0679629101592,0.0654124793064,0.0420226562594,1.49490881475,0.496,0.45,3,3,1,739,3
1.75481421983,0.116375712925,0.0680916615824,0.058120877676,0.394,0.45,0,0,2,740,3
0.0824889923822,0.193514113746,1.0446271759,0.118992036278,0.455,0.45,2,2,1,741,3
0.0633711000184,1.42076329884,0.241354782119,0.0569237792219,0.46,0.45,1,1,1,742,3
0.0631555468564,0.0446325772529,1.11855402324,0.093930077265,0.368,0.45,2,2,2,743,3
1.48347222559,0.0683959438687,0.0535194198193,0.146824675297,0.357,0.45,0,0,2,744,3
0.215379316426,1.0499702516,0.325900596667,0.0800409726309,0.422,0.45,1,1,2,745,3
0.0592832267221,0.209786365249,0.105020227881,1.10853771702,0.437,0.45,3,3,2,746,3
0.162813583183,1.38015123534,0.128032215144,0.0869505170036,0.475,0.45,1,1,1,747,3
0.0268323448916,0.0704465156109,0.203262788523,1.02488234253,0.427,0.45,3,3,2,748,3
1.83686764228,0.244338586248,0.0928421722153,0.136415284544,0.363,0.45,0,0,2,749,3
0.25547053831,0.146063349621,1.32438654849,0.10895066801,0.357,0.45,2,2,2,750,3
0.121898529221,0.078234876709,0.125368091489,1.09963932577,0.477,0.45,3,3,1,751,3
0.274722447291,0.177045787269,1.09529860092,0.09461212198,0.464,0.45,2,2,1,752,3
1.28246575179,0.17393964334,0.0807613121294,0.111120153506,0.444,0.45,0,0,2,753,3
0.0887384461565,1.26187261447,0.0515571925912,0.0420321292224,0.344,0.45,1,1,2,754,3
1.25115471115,0.0234438304256,0.0446799499682,0.0674751232914,0.432,0.45,0,0,2,755,3
0.0534211087016,0.0154711472756,0.0427482884045,1.17918255594,0.349,0.45,3,3,2,756,3
0.0799321456466,1.44527948871,0.143670023889,0.111972468134,0.46,0.45,1,1,1,757,3
0.0753937810809,0.0889260016043,1.18408173673,0.0906114249934,0.361,0.45,2,2,2,758,3
0.156529565424,1.03984527888,0.0338638148064,0.0883282355097,0.417,0.45,1,1,2,759,3
0.0542349254361,0.043053433553,1.20438958214,0.0883477544841,0.405,0.45,2,2,2,760,3
1.48864494267,0.0247896922309,0.0750896620212,0.109613026447,0.37,0.45,0,0,2,761,3
0.344180944741,0.250273413275,0.238338576122,1.21517209431,0.371,0.45,3,3,2,762,3
0.159710821983,0.147372168314,1.10729874224,0.122136040576,0.326,0.45,2,2,2,763,3
0.133563016417,0.200737277558,0.124289847903,1.19161487999,0.459,0.45,3,3,1,764,3
1.78899290968,0.254742812966,0.144786111289,0.134274038835,0.359,0.45,0,0,2,765,3
0.0805600352147,0.140708080159,1.22700874447,0.636094352563,0.485,0.45,2,2,1,766,3
0.170604212448,1.1339422703,0.306009275979,0.0428331560774,0.437,0.45,1,1,2,767,3
1.1124192368,0.271276287962,0.188831831144,0.0651631779208,0.412,0.45,0,0,2,768,3
0.282028128073,1.09495675238,0.55008239531,0.0373415687396,0.437,0.45,1,1,2,769,3
0.184894724216,0.221991544346,1.17238894592,0.0915815720515,0.392,0.45,3,2,-1,770,3
0.212056694933,1.09566762826,0.10331711434,0.0737055907752,0.645,0.45,1,1,1,771,3
1.18274906752,0.157367585785,0.0498698981248,0.0566021513335,0.428,0.45,0,0,2,772,3
0.0838888462899,0.0745100942785,0.119581805959,1.01826181529,0.395,0.45,3,3,2,773,3
0.181839090263,0.179641178163,1.03811176352,0.112563126214,0.366,0.45,2,2,2,774,3
0.301720131897,0.233802358902,0.154492431593,1.0055552721,0.473,0.45,3,3,1,775,3
1.9841969085,0.193311598497,0.111388600723,0.0598466107113,0.348,0.45,0,0,2,776,3
0.215093296648,1.29768201733,0.120413284945,0.0264264600083,0.377,0.45,2,1,-1,777,3
0.238341024484,1.08319742992,0.0354040720797,0.0740236914533,0.397,0.45,1,1,2,778,3
0.0954945375242,0.0993447979114,1.3441690029,0.0407756495575,0.446,0.45,2,2,2,779,3
1.28265823679,0.172435152803,0.249317378158,0.152153361854,0.473,0.45,0,0,1,780,3
0.216429438791,0.298160105605,1.08953003289,0.113966695889,0.496,0.45,1,2,-1,781,3
0.074499314205,0.0634776792061,0.291437662219,1.02492044202,0.571,0.45,3,3,1,782,3
0.102018964234,1.00363902461,0.29890363325,0.0689735910353,0.625,0.45,1,1,1,783,3
0.0955545530506,0.0831977641651,0.0778860407741,1.06335469744,0.513,0.45,3,3,1,784,3
1.2779044774,0.201917381353,0.101267364815,0.0570813817887,0.406,0.45,0,0,2,785,3
0.155457712965,1.05623686864,0.140722700188,0.0961351924459,0.318,0.45,2,1,-1,786,3
1.06540374924,0.101581062429,0.0674965288176,0.102985189368,0.503,0.45,0,0,1,787,3
0.208734130466,0.0397899595724,1.30148141881,0.13594869298,0.464,0.45,3,2,-1,788,3
0.254052339036,0.0415731324442,1.00440135133,0.0987860843267,0.484,0.45,2,2,1,789,3
0.167243884988,0.0466742373857,0.0856549073292,1.07589906352,0.41,0.45,3,3,2,790,3
0.13331929116,1.14281649295,0.0729765901866,0.107476612253,0.593,0.45,1,1,1,791,3
0.220145468485,0.0880212941762,1.29973307727,0.103858762629,0.484,0.45,2,2,1,792,3
0.203978847862,1.29147499011,0.0759040384412,0.192798662792,0.561,0.45,1,1,1,793,3
1.06403685775,0.0469477290876,0.195184539689,0.206264671669,0.492,0.45,0,0,1,794,3
0.25983009877,1.12384517447,0.113005092078,0.106197771201,0.511,0.45,1,1,1,795,3
0.15018037467,0.169142993444,1.02899986852,0.0522222099005,0.423,0.45,2,2,2,796,3
0.20596124142,0.24485087579,0.241666264623,0.216221883609,0.7,0.45,3,-1,0,798,3
0.153508388014,0.185067922083,0.239143512346,1.41478013241,0.122,0.45,0,3,-1,798,3
0.357285333233,0.210632607575,0.291448030333,1.79855552587,0.458,0.45,3,3,1,799,3
0.128751118293,0.138666507514,1.00725458625,0.0522389525083,0.475,0.45,2,2,1,800,3
0.189472411552,1.39255665379,0.163772077154,0.0978337452672,0.526,0.45,0,1,-1,801,3
0.158764116369,0.106356075504,1.11771459979,0.0872358008763,0.619,0.45,2,2,1,802,3
0.233756144051,1.13777632531,0.178572517858,0.0743982777141,0.545,0.45,1,1,1,803,3
0.100473021095,0.0714873019763,0.160006409043,1.12303257386,0.438,0.45,3,3,2,804,3
0.712729551418,1.457233253,0.184970837502,0.169001858052,0.455,0.45,1,1,1,805,3
1.50777713202,0.0336795546577,0.162322286694,0.0985885805228,0.414,0.45,0,0,2,806,3
0.682296746849,1.27982610658,0.0910494818639,0.0793124413067,0.477,0.45,1,1,1,807,3
0.0717221194652,0.0361527974545,1.41872589982,0.0726788771291,0.348,0.45,2,2,2,808,3
1.33300419734,0.0718676890496,0.170991041177,0.10709480901,0.408,0.45,0,0,2,809,3
0.121438508312,0.0491394705847,0.154380760598,1.14791552452,0.553,0.45,3,3,1,810,3
1.68914032714,0.0759424202024,0.0626176229706,0.113290634897,0.48,0.45,0,0,1,811,3
0.192119224267,0.0521394346352,1.13572492221,0.0836129291304,0.349,0.45,2,2,2,812,3
0.0864025716954,0.0368909607157,0.128088837179,1.03083416199,0.391,0.45,3,3,2,813,3
0.12304737808,1.23506503555,0.14542044245,0.139707445344,0.419,0.45,1,1,2,814,3
1.8211950451,0.170732035889,0.0985783050455,0.0936034827373,0.334,0.45,0,0,2,815,3
0.351297888112,1.60807242876,0.166019588378,0.0666534157127,0.46,0.45,1,1,1,816,3
0.0428671186406,0.0793384541591,0.0698057200832,1.0515917461,0.379,0.45,3,3,2,817,3
0.101485857129,0.0872084143323,1.01941105621,0.143245972449,0.314,0.45,2,2,2,818,3
0.460202193569,1.37540471469,0.112789152787,0.153963619001,0.452,0.45,1,1,1,819,3
1.57848033577,0.0675725189815,0.110282005283,0.133601877951,0.349,0.45,0,0,2,820,3
0.0962868628662,0.0888203576177,1.28205435595,0.146984927078,0.282,0.45,2,2,2,821,3
0.0510248563664,0.0827906318981,0.309567780068,1.18446388601,0.365,0.45,3,3,2,822,3
1.40588196532,0.061030461445,0.051051338426,0.114051732646,0.449,0.45,0,0,2,823,3
0.131371638492,0.0482685688532,1.40861750565,0.114810989402,0.417,0.45,3,2,-1,824,3
0.192161813007,0.0326348519329,1.30811295118,0.102988331717,0.517,0.45,2,2,1,825,3
1.05211720126,0.0314800355912,0.0755663076006,0.0807448839929,0.404,0.45,0,0,2,826,3
0.135563568118,1.33241450257,0.128495419351,0.134593491611,0.478,0.45,1,1,1,827,3
0.0534898412325,0.0465635850998,1.22197727619,0.0535136985872,0.411,0.45,3,2,-1,828,3
0.18984745247,1.20447985581,0.208364507366,0.110093619616,0.58,0.45,1,1,1,829,3
0.0957452383941,0.0661451615065,1.39162085274,0.158401334089,0.526,0.45,2,2,1,830,3
0.399555811616,1.14728274878,0.0887557353126,0.0639275722709,0.468,0.45,1,1,1,831,3
0.146170641498,0.200678635823,0.26398652261,1.11038975435,0.53,0.45,3,3,1,832,3
0.26991359521,0.192602016213,1.05368192653,0.262376155538,0.5,0.45,2,2,1,833,3
1.52918456003,0.139733158915,0.158531802428,0.124537043005,0.302,0.45,0,0,2,834,3
0.126001331498,0.112737156697,0.177359872331,1.00233121449,0.377,0.45,2,3,-1,835,3
0.0884776371069,0.0575555147228,0.245921405043,1.25084578221,0.471,0.45,3,3,1,836,3
1.09223633124,0.154907102734,0.129304185321,0.158104669702,0.416,0.45,0,0,2,837,3
0.255158735847,1.05741900141,0.229112339582,0.151328045146,0.399,0.45,1,1,2,838,3
0.0809484095695,0.0684822401643,1.16810700899,0.101392036495,0.326,0.45,2,2,2,839,3
1.04157797647,0.144433618755,0.105066873855,0.116279461051,0.322,0.45,1,0,-1,840,3
2.00540896325,0.0477661418516,0.156888829675,0.132588519008,0.568,0.45,0,0,1,841,3
0.174860977832,0.0869070166288,0.216698232649,0.791496931994,0.7,0.45,3,-1,0,843,3
0.155099501717,1.2668865082,0.0944387321103,0.0876007595544,0.578,0.45,1,1,1,843,3
0.195828717501,0.221462815149,0.212264668676,1.08627862803,0.547,0.45,3,3,1,844,3
0.089354746427,0.0618095510217,1.14415094253,0.131007509412,0.556,0.45,2,2,1,845,3
1.15864393296,0.142081530484,0.0779975636666,0.0926332173342,0.555,0.45,0,0,1,846,3
0.108203098238,0.0524790660006,0.0505828225778,1.19958342975,0.447,0.45,3,3,2,847,3
1.50812415479,0.119390956431,0.120642088363,0.125993027417,0.418,0.45,0,0,2,848,3
0.147288962183,0.12969871857,0.382688596329,1.14651955638,0.446,0.45,2,3,-1,849,3
0.100587509554,0.0709742235193,0.0889219172677,1.28905145546,0.493,0.45,3,3,1,850,3
0.0581105145276,1.34809864553,0.333161695233,0.114210765121,0.517,0.45,1,1,1,851,3
1.40588760665,0.25835971179,0.109801892402,0.0924997474748,0.37,0.45,0,0,2,852,3
1.08452046845,0.166530101414,0.303483588004,0.0766524581856,0.447,0.45,1,0,-1,853,3
0.0910171714739,0.119077083048,1.1924288988,0.091592873599,0.38,0.45,2,2,2,854,3
0.581459465797,1.18629093407,0.0354378586398,0.100368613755,0.534,0.45,1,1,1,855,3
0.0745782283361,0.0355344746683,1.07247725205,0.0901435123581,0.509,0.45,2,2,1,856,3
0.0734783831665,0.0332703087304,0.0766550598882,1.17912701073,0.441,0.45,3,3,2,857,3
1.73548588528,0.0721469209867,0.0745525661951,0.0982958870028,0.412,0.45,0,0,2,858,3
0.0774481070727,0.109350685673,0.190401892731,1.06497315923,0.483,0.45,3,3,1,859,3
0.0903324861455,0.120637007552,1.0343069273,0.044891443827,0.417,0.45,2,2,2,860,3
1.33168942938,0.105004713026,0.106826697306,0.0696360233088,0.445,0.45,0,0,2,861,3
0.0682162047543,0.0537283195797,1.01730146941,0.0810925556861,0.33,0.45,2,2,2,862,3
0.0399382990453,1.05030910774,0.0828448075663,0.0855615784382,0.367,0.45,1,1,2,863,3
1.9453753028,0.0475493382078,0.0727131417965,0.0455535344823,0.403,0.45,0,0,2,864,3
0.170596557875,1.12299294886,0.0529998328527,0.0343703983919,0.439,0.45,1,1,2,865,3
0.0572239204782,0.0317047038643,0.0742547972855,1.05982985221,0.436,0.45,3,3,2,866,3
0.0804567666679,1.23270132896,0.0760556232522,0.054071781079,0.416,0.45,1,1,2,867,3
1.5547003704,0.149385067658,0.104180349612,0.0953801232735,0.556,0.45,0,0,1,868,4
0.106173514737,0.0889777818357,1.2107103795,0.105668600885,0.362,0.45,2,2,2,869,4
0.125216660907,0.0339080197396,1.14671008219,0.128175160774,0.373,0.45,1,2,-1,870,4
0.051493813997,0.0314017654169,1.09072744368,0.0861248671563,0.359,0.45,3,2,-1,871,4
0.0687893146979,0.0839968586018,1.08804556711,0.0966652291605,0.342,0.45,2,2,2,872,4
0.0389417377375,0.0391324380456,0.434209169505,1.02901781152,0.458,0.45,3,3,1,873,4
0.117511847353,1.28468346324,0.143809269792,0.16681628624,0.477,0.45,1,1,1,874,4
0.114532448581,0.0312594318819,1.17664512726,0.157557419775,0.481,0.45,2,2,1,875,4
1.5727267429,0.0312507973502,0.0726004858045,0.0890398042143,0.444,0.45,0,0,2,876,4
0.140230764943,1.16488515002,0.412958026719,0.105228511197,0.388,0.45,1,1,2,877,4
1.46788379253,0.11832882756,0.126098372631,0.114629000923,0.505,0.45,0,0,1,878,4
0.147914736429,0.0511594498993,0.186234888845,1.0198288198,0.477,0.45,3,3,1,879,4
1.10878179981,0.0526073985217,0.0726576879264,0.165069929466,0.41,0.45,0,0,2,880,4
0.169838428103,1.29535636567,0.0869077344863,0.103766565744,0.445,0.45,1,1,2,881,4
0.0640104047698,0.046980225037,0.0705379939798,1.16033946263,0.43,0.45,3,3,2,882,4
0.133188333082,0.056440003822,1.59686394745,0.232423898765,0.348,0.45,2,2,2,883,4
0.234081098066,1.16132484751,0.0948866880858,0.157263503536,0.419,0.45,1,1,2,884,4
0.0801206000397,0.0471188916589,1.08957260605,0.177466908214,0.337,0.45,2,2,2,885,4
0.0973444380894,0.0483596518454,0.219721955991,1.17660275915,0.385,0.45,3,3,2,886,4
1.70309648002,0.122242367656,0.132213746125,0.137241554996,0.345,0.45,0,0,2,887,4
0.206741446329,1.37411588866,0.120764778816,0.086303472264,0.322,0.45,2,1,-1,888,4
1.56149890258,0.040482743307,0.0435788986475,0.0518169286804,0.384,0.45,0,0,2,889,4
0.121284376632,0.0313533411586,0.0769092074706,1.0698735578,0.411,0.45,3,3,2,890,4
0.280692961509,1.47026010492,0.0638502871962,0.121563449788,0.387,0.45,1,1,2,891,4
1.05363450133,0.124181284002,0.0940776957774,0.122304870839,0.413,0.45,0,0,2,892,4
1.16873370136,0.154807122471,0.0805081600823,0.0856521511284,0.482,0.45,1,0,-1,893,4
0.124169462441,0.0452288282167,0.0666797859936,1.24948489337,0.615,0.45,3,3,1,894,4
0.131049201582,0.0705667002542,1.22693937448,0.0921148522058,0.502,0.45,2,2,1,895,4
0.177580975053,1.20913842752,0.0952758319782,0.178127466191,0.395,0.45,1,1,2,896,4
0.0612805829443,0.0560315912071,1.10519753847,0.101792216083,0.42,0.45,2,2,2,897,4
0.0550145561201,0.0519577136677,0.0974299337101,1.45861235517,0.356,0.45,3,3,2,898,4
1.78469595819,0.148116767041,0.129310134073,0.112371123761,0.329,0.45,0,0,2,899,4
0.181354653312,0.0809743078952,1.15658723147,0.124844282428,0.357,0.45,2,2,2,900,4
1.20763681999,0.0582389988351,0.110308221734,0.127008000157,0.372,0.45,0,0,2,901,4
0.104842157538,0.0407796761819,0.0877882459445,1.44362089077,0.385,0.45,3,3,2,902,4
0.16259958291,1.11656234382,0.100205905483,0.171844478581,0.323,0.45,1,1,2,903,4
1.1925446817,0.130913124314,0.0899579166726,0.0646176609035,0.452,0.45,0,0,1,904,4
0.277147065098,1.22255645337,0.0683780868281,0.0788950011292,0.501,0.45,1,1,1,905,4
0.140369055604,1.11177223482,0.0910788770273,0.0781829711554,0.378,0.45,2,1,-1,906,4
0.0814316956703,0.0389775282151,1.09615529706,0.117883257341,0.397,0.45,3,2,-1,907,4
0.146378948681,0.0536606861687,1.10002102961,0.170107403217,0.631,0.45,2,2,1,908,4
0.0612335588706,1.36427266713,0.083935172673,0.136197324241,0.524,0.45,1,1,1,909,4
0.0524514483051,0.044337256686,0.0751265428186,1.18209103288,0.429,0.45,3,3,2,910,4
0.130496289685,1.30530320215,0.1598200913,0.135613688139,0.452,0.45,1,1,1,911,4
1.71313543045,0.172974640915,0.155785313492,0.126700405715,0.364,0.45,0,0,2,912,4
0.143001691303,0.0973298718235,1.15318971818,0.116154112448,0.352,0.45,3,2,-1,913,4
1.70522664643,0.0360208477501,0.0564905923855,0.075116819394,0.362,0.45,0,0,2,914,4
0.261522195521,0.082587666107,1.08589555876,0.0776597018241,0.362,0.45,2,2,2,915,4
0.129410770899,0.0604577123799,0.128162002782,0.152810742931,0.7,0.45,0,-1,0,917,4
1.63788514297,0.0513122666385,0.164063363955,0.193049545919,0.0770000000003,0.45,1,0,-1,917,4
0.0865941315051,0.135962128141,1.27268667875,0.182005018949,0.526,0.45,2,2,1,918,4
0.0657507411161,0.0531998951771,0.0803307281391,1.18562943527,0.381,0.45,3,3,2,919,4
0.118700865752,0.0846300280188,1.07811995794,0.0797188095624,0.422,0.45,2,2,2,920,4
1.63424968294,0.0978811669519,0.170518815873,0.184325477085,0.371,0.45,1,0,-1,921,4
0.0898036095089,0.0400118881238,0.601348101319,1.25997783718,0.423,0.45,3,3,2,922,4
1.56849877475,0.0346862117875,0.109754538381,0.111288245519,0.414,0.45,0,0,2,923,4
0.0547013125886,0.0520910728821,1.02589200407,0.131003309286,0.329,0.45,2,2,2,924,4
1.41982269099,0.0429377535788,0.0591566527486,0.128535265219,0.447,0.45,0,0,2,925,4
0.128167359644,0.0563544222698,0.156938566502,1.08637165496,0.428,0.45,3,3,2,926,4
1.1731651922,0.0379185318761,0.216803075445,0.155119831411,0.399,0.45,1,0,-1,927,4
1.09033098061,0.0191994412395,0.0471614909919,0.193056394984,0.428,0.45,0,0,2,928,4
0.0756651374715,0.120237829767,1.27884292104,0.153786230596,0.384,0.45,2,2,2,929,4
1.43571054402,0.138784695092,0.220606346628,0.160106001951,0.49,0.45,1,0,-1,930,4
0.059996054755,0.0406202166786,0.101124921913,1.00667609322,0.504,0.45,3,3,1,931,4
0.0785826453293,0.134388290688,1.08373067888,0.10844983705,0.506,0.45,2,2,1,932,4
0.0558708621931,0.0518419226003,0.237378955963,1.28082791429,0.604,0.45,3,3,1,933,4
0.0972177556293,1.03500725512,0.15051081105,0.103856897298,0.555,0.45,1,1,1,934,4
1.04100077164,0.190436426549,0.0656793050934,0.0890283102741,0.413,0.45,0,0,2,935,4
0.123826494854,1.05923701289,0.163891059788,0.0879514929102,0.474,0.45,1,1,1,936,4
0.0280602855189,0.0157513130009,1.010510435,0.0563908966256,0.426,0.45,2,2,2,937,4
1.54431835175,0.0127315297621,0.0382488522969,0.104774366267,0.492,0.45,0,0,1,938,4
0.0529810712526,0.0197944244249,0.0851595382669,1.06660121224,0.463,0.45,3,3,1,939,4
1.12107942881,0.0229175849693,0.0913154883244,0.0916308616037,0.396,0.45,0,0,2,940,4
0.0583208191149,1.36750901229,0.117057088894,0.0612582268021,0.48,0.45,1,1,1,941,4
0.037907728458,0.038862279901,1.00491001612,0.134261303695,0.375,0.45,3,2,-1,942,4
0.0344585347005,0.0292967743258,1.23202521972,0.16005166186,0.366,0.45,2,2,2,943,4
0.0351454552672,0.0579768561954,0.0454363525158,1.11971826688,0.454,0.45,3,3,1,944,4
0.0525746630681,1.19111927313,0.152897390102,0.252054223355,0.366,0.45,1,1,2,945,4
1.0758515808,0.0152524196347,0.107560606809,0.195232013851,0.113,0.45,2,0,-1,946,4
1.32038559016,0.0182995918806,0.165848406933,0.203853023231,0.382,0.45,1,0,-1,947,4
1.92108082853,0.0276106533756,0.216620081273,0.203326205744,0.465,0.45,0,0,1,948,4
0.0472786993204,0.0145761392767,1.22795378967,0.210492374767,0.391,0.45,2,2,2,949,4
1.08671955912,0.0132542223086,0.118077294529,0.146505382149,0.507,0.45,0,0,1,950,4
0.051144270787,0.0293281160968,0.0409416300901,0.167643610644,0.7,0.45,3,-1,0,952,4
1.0174902718,0.0270488534459,0.0427133244682,0.102851951037,0.479,0.45,0,0,1,952,4
0.0617043554582,0.02043993477,0.0338935542031,1.36060490069,0.411,0.45,3,3,2,953,4
0.0694193154258,1.60629701751,0.0784591129315,0.24232492632,0.551,0.45,1,1,1,954,4
0.0286451621013,0.023475339622,1.1612263979,0.0821874952559,0.356,0.45,2,2,2,955,4
1.16621582539,0.0477196723122,0.0504321324622,0.169090206333,0.427,0.45,1,0,-1,956,4
0.0232705959834,0.00862878115456,0.0457286185096,1.42260605451,0.403,0.45,3,3,2,957,4
0.0316403818011,0.0282196548209,1.08436588031,0.125852432057,0.375,0.45,2,2,2,958,4
0.0396162649052,0.022582381315,0.532190992873,1.22415981851,0.442,0.45,3,3,2,959,4
1.03422664172,0.0092607205987,0.0719539104446,0.20139136264,0.446,0.45,0,0,2,960,4
0.0629860461944,0.0135452431255,1.07821820913,0.166808334864,0.346,0.45,2,2,2,961,4
1.67193297428,0.0544491380005,0.0470273180015,0.265153302205,0.53,0.45,0,0,1,962,4
0.0604512183397,1.12571731737,0.167581273708,0.100239679628,0.498,0.45,1,1,1,963,4
1.22663478969,0.0228444483027,0.0648984249229,0.12519668804,0.489,0.45,0,0,1,964,4
0.0672508699491,0.0295673467711,1.04807341284,0.100565135513,0.444,0.45,2,2,2,965,4
1.82276567415,0.130934383037,0.119173959312,0.165764594539,0.398,0.45,1,0,-1,966,4
0.206988204692,0.0315082780284,0.308763808942,1.07212659279,0.557,0.45,3,3,1,967,4
0.382768610014,1.06075897377,0.434475408915,0.0734443038481,0.45,0.45,1,1,1,968,4
1.0342050146,0.433696001626,0.0610553266495,0.101624085534,0.252,0.45,2,0,-1,969,4
0.203876213096,0.197595410101,1.00580846897,0.131471537655,0.438,0.45,3,2,-1,970,4
1.40309104255,0.16646355568,0.0847380924116,0.185924980287,0.569,0.45,0,0,1,971,4
0.328485361009,1.17677436585,0.0913993332026,0.104732355581,0.57,0.45,1,1,1,972,4
1.52012652894,0.239171483192,0.140493833621,0.175233879355,0.52,0.45,0,0,1,973,4
0.341901425552,0.2225319508,0.1032317386,0.115349516265,0.7,0.45,3,-1,0,975,4
0.218902797579,0.194883268346,0.145068767287,1.01230930742,0.292,0.45,2,3,-1,975,4
1.80209049479,0.0725158777,0.0559633937675,0.0724252925324,0.496,0.45,0,0,1,976,4
0.10196484654,0.289096914958,1.11200585166,0.0716732303647,0.603,0.45,1,2,-1,977,4
0.151034826305,0.19680398729,0.0861539376647,1.78824085164,0.589,0.45,3,3,1,978,4
0.119817205504,0.148735686757,1.31989177596,0.109791576612,0.492,0.45,2,2,1,979,4
0.120392808993,1.44668703121,0.156928182441,0.108298704096,0.433,0.45,1,1,2,980,4
0.146709067346,0.0773398968402,1.02884857011,0.106770732506,0.455,0.45,2,2,1,981,4
0.0717436356016,0.0814193263473,0.188835933485,1.22624107369,0.462,0.45,3,3,1,982,4
0.215096585037,1.11039596244,0.0748549869529,0.113355977879,0.413,0.45,1,1,2,983,4
1.55323743489,0.253610041539,0.126258641166,0.063969693308,0.346,0.45,0,0,2,984,4
0.188573351272,0.159838072836,1.31715593429,0.0808619146042,0.369,0.45,2,2,2,985,4
1.03113430512,0.160352170346,0.151762959364,0.11517243927,0.443,0.45,0,0,2,986,4
0.225698446561,0.109798026444,0.111695289951,1.12959962445,0.376,0.45,3,3,2,987,4
1.26615037808,0.249454692954,0.080259158835,0.0411733434241,0.426,0.45,0,0,2,988,4
0.177622230119,1.10260966085,0.0712232319106,0.0286945108323,0.401,0.45,1,1,2,989,4
0.193802266187,0.138141785962,1.0014169317,0.0432274134789,0.393,0.45,2,2,2,990,4
0.100314241265,0.055749378952,0.102092531734,1.16698971377,0.351,0.45,3,3,2,991,4
0.253170853957,0.189319071048,1.08478089915,0.071739556704,0.397,0.45,2,2,2,992,4
0.22262239577,1.25905695092,0.699127140463,0.060164023443,0.504,0.45,1,1,1,993,4
0.0973999310376,0.121037395926,0.0231948700798,1.05158439158,0.474,0.45,3,3,1,994,4
1.15029446585,0.203280392622,0.095371479177,0.0726928000466,0.37,0.45,0,0,2,995,4
0.320631452232,0.121224017406,0.077211018185,0.160477455596,0.7,0.45,3,-1,0,997,4
0.237581355115,1.05946812842,0.0618026104947,0.0888990087427,0.405,0.45,1,1,2,997,4
1.12489567939,0.161385526048,0.0615457636778,0.0583022907885,0.432,0.45,0,0,2,998,4
0.0825341556963,0.287129836454,1.1025932163,0.0943731813039,0.5,0.45,2,2,1,999,4
1.71775900787,0.0571430386459,0.0399264511909,0.0488557123394,0.434,0.45,0,0,2,1000,4
0.22523046021,0.0692919067078,1.12987764341,0.0439186181673,0.328,0.45,2,2,2,1001,4
0.111151562492,0.0364677839149,0.0848491996403,1.25857453622,0.431,0.45,3,3,2,1002,4
0.416550368839,1.1663033524,0.118159244906,0.0843787527022,0.52,0.45,1,1,1,1003,4
0.09138529433,0.0694289121742,0.133529079528,1.17306557266,0.511,0.45,3,3,1,1004,4
0.119799813922,0.458774680847,1.02365144139,0.0287897620835,0.447,0.45,2,2,2,1005,4
0.0641125768431,1.16752645995,0.0920060913784,0.098888672004,0.453,0.45,1,1,1,1006,4
0.0824490373877,0.0896139376764,1.01161670692,0.052273602727,0.382,0.45,2,2,2,1007,4
1.15981226819,0.138725820654,0.133391893245,0.0664756158414,0.423,0.45,0,0,2,1008,4
0.196398983229,1.02325068202,0.142785970272,0.0677480268015,0.464,0.45,1,1,1,1009,4
1.15334879458,0.126750007288,0.0711384337751,0.0855315770494,0.52,0.45,0,0,1,1010,4
0.0820811693057,0.0374961873953,0.0522508311814,1.41106017382,0.501,0.45,3,3,1,1011,4
1.31425718091,0.154263855057,0.104029376801,0.136124246795,0.447,0.45,0,0,2,1012,4
0.191443028598,0.118443910565,1.15011554968,0.0914644216424,0.358,0.45,2,2,2,1013,4
0.0875098389977,0.112977614015,0.0611881113067,1.31248312992,0.473,0.45,3,3,1,1014,4
0.120523425751,0.69214980587,0.152608559725,0.0900866621161,0.7,0.45,1,-1,0,1016,4
0.10251545269,0.0535045007114,0.0276781974972,1.04023465509,0.603,0.45,3,3,1,1016,4
0.111040936849,0.120659509711,1.27732029553,0.123456720442,0.459,0.45,2,2,1,1017,4
0.0861541848184,1.06474962421,0.0679796709227,0.0378633096859,0.376,0.45,1,1,2,1018,4
0.0577085255579,0.0443512023465,1.04166208218,0.358794004951,0.436,0.45,2,2,2,1019,4
1.08728787066,0.0163901220057,0.161146026128,0.185407056887,0.405,0.45,0,0,2,1020,4
0.116295822294,0.0763882350395,0.145287990056,1.30964038682,0.358,0.45,3,3,2,1021,4
1.0265550057,0.130664673439,0.104144633992,0.14686087672,0.48,0.45,0,0,1,1022,4
0.0506620023114,1.03293124814,0.225224918654,0.0398264312184,0.487,0.45,1,1,1,1023,4
1.45200886093,0.161280104227,0.12470946083,0.0715355370949,0.438,0.45,0,0,2,1024,4
0.0857400169896,0.0450192114635,0.0837275489941,1.3464901582,0.449,0.45,3,3,2,1025,4
0.105199136049,0.107614053895,1.19564206533,0.0456374715656,0.345,0.45,2,2,2,1026,4
1.27806143628,0.103352960671,0.182009005528,0.0826967750139,0.301,0.45,1,0,-1,1027,4
0.0736065631374,0.0303350580175,1.11054770954,0.0418704203073,0.403,0.45,3,2,-1,1028,4
1.09681647219,0.0469734985009,0.0567562051152,0.0955186785035,0.423,0.45,1,0,-1,1029,4
0.0480595403818,0.0156435457624,1.09577326509,0.121357730378,0.447,0.45,2,2,2,1030,4
0.302186271686,0.260139116922,0.173338205585,1.39730583489,0.417,0.45,3,3,2,1031,4
1.97444570152,0.0845248156909,0.128348308583,0.174435723007,0.465,0.45,0,0,1,1032,4
0.0787343107033,0.0656920454607,1.35119046579,0.17233729179,0.402,0.45,2,2,2,1033,4
1.40203578111,0.0798780120304,0.147867023402,0.096784469795,0.423,0.45,0,0,2,1034,4
0.085342845881,1.13147467174,0.0580273029474,0.126701277435,0.486,0.45,1,1,1,1035,4
1.84353992284,0.211166049014,0.0808063305473,0.118885430932,0.462,0.45,0,0,1,1036,4
0.128518895668,0.0591305983467,1.04655392519,0.0874973305715,0.318,0.45,2,2,2,1037,4
0.398535767037,1.48752938689,0.0527787034961,0.160599954218,0.417,0.45,1,1,2,1038,4
0.0594985544157,0.00785333852634,0.0740007379103,1.34614981584,0.43,0.45,3,3,2,1039,4
0.0657366032078,0.0451145325125,1.0355688892,0.0877861292406,0.386,0.45,2,2,2,1040,4
0.0604428313298,0.0480741370506,0.0846196844689,1.19658172757,0.476,0.45,3,3,1,1041,4
0.0876916604943,1.09575640502,0.174610645712,0.114663707339,0.448,0.45,1,1,2,1042,4
0.122360823207,0.0271035406604,1.28449597513,0.0888547815561,0.489,0.45,2,2,1,1043,4
1.01556462071,0.0234413457056,0.0523595215541,0.0824531034886,0.372,0.45,0,0,2,1044,4
0.0697769713276,0.0274799913361,1.26702093555,0.0895844621121,0.336,0.45,3,2,-1,1045,4
1.65692011427,0.0280036792621,0.0533153239356,0.138043926634,0.383,0.45,0,0,2,1046,4
0.110797810964,1.42341905524,0.0964332153785,0.158851942873,0.48,0.45,1,1,1,1047,4
1.22171613777,0.0234261287904,0.0921155027263,0.130576089201,0.447,0.45,0,0,2,1048,4
0.0808116455528,0.0113464378001,1.06659710783,0.0303035821899,0.34,0.45,2,2,2,1049,4
0.396007614918,1.23563118197,0.116738008008,0.207678337644,0.49,0.45,1,1,1,1050,4
0.0612331373433,0.0234857406334,0.0895269279289,1.2843741062,0.39,0.45,3,3,2,1051,4
0.079241613606,1.010165346,0.114168892477,0.0450291318418,0.478,0.45,1,1,1,1052,4
0.0253210137478,0.151518387476,1.23880967662,0.127457100919,0.342,0.45,2,2,2,1053,4
0.0678584188805,0.0987868148088,0.0898675801662,1.02919458246,0.351,0.45,3,3,2,1054,4
1.16744725191,0.12455355057,0.0737015808032,0.0527056354721,0.305,0.45,2,0,-1,1055,4
1.53932675207,0.0988879406856,0.113504998293,0.0600715857437,0.448,0.45,0,0,2,1056,4
0.158690300665,0.0568542984748,0.101312666455,1.10462188946,0.474,0.45,3,3,1,1057,4
1.01945914155,0.0904149817214,0.121043072875,0.14235831103,0.431,0.45,0,0,2,1058,4
0.283193780977,1.38265911149,0.0980364015058,0.0996432735061,0.53,0.45,1,1,1,1059,4
1.13639682294,0.105288638525,0.11415861349,0.225334948183,0.569,0.45,0,0,1,1060,4
0.0931453995162,0.042717054693,0.0463310214508,1.24860741429,0.516,0.45,3,3,1,1061,4
0.175004692363,0.207658340635,1.3075492528,0.194750242985,0.387,0.45,2,2,2,1062,4
0.310324419187,1.25108852631,0.118234617522,0.155509931953,0.41,0.45,1,1,2,1063,4
0.286259210516,0.176421986109,0.223421292795,1.28135416563,0.439,0.45,3,3,2,1064,4
0.192508090211,0.244546891884,1.21068370974,0.107551768159,0.357,0.45,1,2,-1,1065,4
0.15094216603,0.463882379427,1.01648491775,0.140751366439,0.42,0.45,2,2,2,1066,4
0.139260279357,0.0969541935106,0.238544291432,1.10126251135,0.407,0.45,3,3,2,1067,4
1.37316667733,0.187442099285,0.108535262158,0.0372398681575,0.344,0.45,0,0,2,1068,4
0.273727410081,0.11952395485,1.00905484189,0.146738790355,0.316,0.45,2,2,2,1069,4
1.42318868131,0.123745337087,0.111482706778,0.17064364245,0.383,0.45,0,0,2,1070,4
0.273553962072,1.27923242804,0.124364676887,0.132666260153,0.432,0.45,1,1,2,1071,4
1.60352876604,0.161807653037,0.131938915711,0.0598360012346,0.428,0.45,0,0,2,1072,4
0.263766468476,0.167477123915,1.18746760194,0.167191779028,0.442,0.45,2,2,2,1073,4
0.272105026798,0.122592683851,0.134943755271,1.42660287977,0.438,0.45,3,3,2,1074,4
0.218492760201,1.40011981813,0.157695896264,0.0844760690841,0.431,0.45,1,1,2,1075,4
0.124697474894,0.106781870993,1.28111557354,0.0829351084548,0.37,0.45,2,2,2,1076,4
0.217136519873,1.1295359244,0.0831943715245,0.0541630901816,0.52,0.45,1,1,1,1077,4
0.0510156056405,0.0585819702206,0.226684774062,1.19763472323,0.473,0.45,3,3,1,1078,4
0.0907310037712,0.129759952607,1.06803677371,0.148524838992,0.496,0.45,2,2,1,1079,4
1.06350451476,0.163960802359,0.0649567459201,0.110946665868,0.406,0.45,0,0,2,1080,4
0.0964348444502,1.40974825915,0.0679891671278,0.118380757282,0.353,0.45,1,1,2,1081,4
1.52176762417,0.0351774208469,0.0908031970985,0.166845747071,0.433,0.45,0,0,2,1082,4
0.117005778847,0.0340048632823,1.16383111506,0.0542033777086,0.326,0.45,3,2,-1,1083,4
1.37013347415,0.434646926878,0.0362340478364,0.182159923197,0.515,0.45,0,0,1,1084,4
0.157913446058,1.25009340125,0.116201411452,0.110314390926,0.488,0.45,1,1,1,1085,5
1.34806806009,0.205778071311,0.146799829541,0.115454229581,0.39,0.45,0,0,2,1086,5
0.263833286315,0.143073534332,0.168247541218,1.187586055,0.39,0.45,3,3,2,1087,5
0.224647312687,0.213232303864,1.35271646265,0.105520923164,0.32,0.45,2,2,2,1088,5
0.110205001353,0.118469853161,0.568003796626,1.00321953898,0.385,0.45,3,3,2,1089,5
1.10005312507,0.204621217954,0.0992751208147,0.0785592532046,0.371,0.45,0,0,2,1090,5
0.32623558446,0.107098519671,1.47750809632,0.0898353676154,0.327,0.45,2,2,2,1091,5
1.1122287373,0.143868951945,0.0647497083945,0.0822091241857,0.411,0.45,0,0,2,1092,5
0.247678382542,1.02746789101,0.101626380809,0.0612295327358,0.344,0.45,1,1,2,1093,5
0.133363224653,0.0671214784053,1.09456460678,0.0805919027431,0.299,0.45,2,2,2,1094,5
1.20857698518,0.302380839459,0.410388405615,0.0813500804533,0.442,0.45,1,0,-1,1095,5
0.100740036527,0.00785830490653,0.0434764227708,1.38986988819,0.407,0.45,3,3,2,1096,5
0.0916134883608,1.06825267744,0.134086691526,0.0595837978767,0.473,0.45,1,1,1,1097,5
0.11964955062,0.0793972865972,1.14056364334,0.142606216109,0.441,0.45,2,2,2,1098,5
0.0929061260067,0.111165304054,0.149350411721,1.23913128983,0.41,0.45,3,3,2,1099,5
1.17539275427,0.146035666927,0.105389405892,0.085634875859,0.362,0.45,0,0,2,1100,5
0.12156407611,0.0617661938644,1.06524828093,0.09530197597,0.367,0.45,3,2,-1,1101,5
0.113701779404,0.0687004475131,1.01549075544,0.187599664955,0.462,0.45,2,2,1,1102,5
1.1446826123,0.568339448608,0.0532840403041,0.0667014018186,0.424,0.45,0,0,2,1103,5
0.622975718268,1.30877024092,0.0917133877511,0.0394926275662,0.457,0.45,1,1,1,1104,5
0.179743522263,0.209883798632,0.214628252638,1.44704372265,0.38,0.45,3,3,2,1105,5
1.07457792016,0.513882648933,0.231335576579,0.18663959654,0.326,0.45,1,0,-1,1106,5
1.46480999611,0.241668262936,0.155567984011,0.125777660901,0.425,0.45,0,0,2,1107,5
0.122556545191,0.544457167206,1.07829188834,0.185707004023,0.524,0.45,2,2,1,1108,5
1.26101849941,0.0853037677655,0.142832106915,0.0716266943397,0.489,0.45,1,0,-1,1109,5
1.21607028656,0.0652203887014,0.134330917175,0.0654868821124,0.455,0.45,0,0,1,1110,5
0.169284677714,0.139000711601,1.38214324766,0.0818268391495,0.453,0.45,2,2,1,1111,5
0.216502300923,0.162452453606,0.170893423316,1.08943604502,0.342,0.45,3,3,2,1112,5
1.35232818332,0.169718799824,0.134356915516,0.107488291749,0.304,0.45,0,0,2,1113,5
0.177256986558,0.162266881607,0.118253017405,1.09710691183,0.397,0.45,3,3,2,1114,5
0.101817049258,0.204422773945,1.27363218656,0.148972176205,0.345,0.45,2,2,2,1115,5
1.13720336393,0.122761763873,0.114876355202,0.0331020664897,0.273,0.45,0,0,2,1116,5
0.158659988158,1.25570149051,0.0943648170166,0.0418816602165,0.353,0.45,1,1,2,1117,5
0.218028273191,0.455323901688,1.21810379272,0.0735384584816,0.458,0.45,2,2,1,1118,5
1.35093360743,0.0391915294864,0.712721491461,0.103657822301,0.52,0.45,1,0,-1,1119,5
0.122613394432,0.0507349754435,0.809901289352,1.26654883366,0.542,0.45,3,3,1,1120,5
0.0971681426519,1.07451952837,0.0562518860787,0.0317456202363,0.466,0.45,1,1,1,1121,5
0.109883708991,0.0654948329703,1.07759039828,0.117742486876,0.43,0.45,2,2,2,1122,5
0.114755288117,1.02390086474,0.147999611925,0.0887599201671,0.311,0.45,0,1,-1,1123,5
0.118238132539,0.0245622723609,0.149534450443,1.26371302479,0.419,0.45,3,3,2,1124,5
0.198247866351,0.146330146824,1.1281644636,0.108625941024,0.538,0.45,2,2,1,1125,5
0.123089774811,0.0134660580806,0.128092635693,0.0998508792374,0.7,0.45,3,-1,0,1127,5
1.26266169912,0.0238134644208,0.192044039415,0.12534566493,0.367,0.45,0,0,2,1127,5
0.160556403978,0.0375415872183,1.04756525493,0.0773976058604,0.649,0.45,1,2,-1,1128,5
0.152981762355,1.04025774031,0.699356159701,0.0672804072018,0.0250000000004,0.45,3,1,-1,1129,5
0.259049130761,0.238871818841,1.0584487643,1.03354296368,0.00600000000038,0.45,1,2,-1,1130,5
1.14785928803,0.150615348162,0.065583520033,0.0905804416257,0.459,0.45,0,0,1,1131,5
0.0782577728336,0.0758258613263,1.0593107743,0.387735173072,0.51,0.45,2,2,1,1132,5
1.22530060085,0.13429346133,0.220714826074,0.0441632067667,0.434,0.45,1,0,-1,1133,5
0.0835684178958,0.0702471230538,1.07325483677,0.0895564868746,0.433,0.45,2,2,2,1134,5
0.0819473278798,0.0379873590023,1.14362591917,0.0528649422314,0.395,0.45,3,2,-1,1135,5
1.33232595771,0.084648802757,0.0862269251489,0.0669946276822,0.318,0.45,0,0,2,1136,5
0.0782348961918,0.177326217191,1.13881701676,0.226357383607,0.376,0.45,3,2,-1,1137,5
0.182355556996,0.167665170296,1.07150780213,0.166951463055,0.437,0.45,2,2,2,1138,5
0.063066661407,1.40840122508,0.147909617492,0.105005254591,0.332,0.45,0,1,-1,1139,5
1.24821281928,0.0362786331031,0.832901668762,0.162566033091,0.552,0.45,1,0,-1,1140,5
0.0612781652379,0.106805617547,0.211923609366,1.2710641089,0.478,0.45,3,3,1,1141,5
0.219992648371,1.03507751953,0.298280721631,0.0778859414409,0.444,0.45,1,1,2,1142,5
1.68597389519,0.104127522262,0.0537585403246,0.106790288067,0.339,0.45,0,0,2,1143,5
0.0604553469341,0.0367954600459,1.06098263938,0.129516616041,0.31,0.45,2,2,2,1144,5
0.378784393807,1.45549299563,0.0532403217786,0.0876942261482,0.488,0.45,1,1,1,1145,5
0.0664192479543,0.0201899914663,0.036276833849,0.275397638909,0.7,0.45,3,-1,0,1147,5
0.0995621061416,0.214267130152,1.2724099337,0.218090409662,0.471,0.45,2,2,1,1147,5
1.19236136135,0.0287335372471,0.055504632561,0.177246008786,0.327,0.45,0,0,2,1148,5
0.0562697873303,0.0266585020912,1.04614141748,0.12588439425,0.314,0.45,2,2,2,1149,5
0.0553330090898,0.0371895676127,0.0523782966966,1.2450774908,0.354,0.45,3,3,2,1150,5
1.13090311964,0.0381252409088,0.122410577936,0.137058307137,0.386,0.45,0,0,2,1151,5
0.0817668009403,1.19915483839,0.094493516213,0.0842577921372,0.475,0.45,1,1,1,1152,5
0.0545546626677,0.0425492260542,1.24178603898,0.0601592855595,0.339,0.45,2,2,2,1153,5
0.420520937443,1.21784041393,0.05446363182,0.144896392509,0.41,0.45,1,1,2,1154,5
1.01208439008,0.0424791444391,0.0530152980493,0.0942752746234,0.39,0.45,0,0,2,1155,5
0.0594355753458,0.0216485788186,0.0254989808304,0.137704593812,0.7,0.45,3,-1,0,1157,5
0.0666861785482,1.19360297473,0.125022865598,0.141778854624,0.571,0.45,1,1,1,1157,5
1.01151124441,0.151627350858,0.0423790061323,0.174323847521,0.469,0.45,0,0,1,1158,5
0.287701673671,0.188290517454,0.448327357098,1.36842720498,0.42,0.45,3,3,2,1159,5
0.139844048272,0.116531187926,1.08669852171,0.108921780465,0.374,0.45,2,2,2,1160,5
0.0750148422586,0.122701706048,0.072775555289,1.01829668024,0.415,0.45,3,3,2,1161,5
1.28332095209,0.166332199235,0.112778532173,0.131367723678,0.33,0.45,0,0,2,1162,5
0.0663291723213,0.107574268258,1.1167492225,0.204009927456,0.506,0.45,2,2,1,1163,5
1.22012213827,0.111537596676,0.1040593618,0.159547527834,0.423,0.45,0,0,2,1164,5
0.236201247077,1.10497823205,0.046672879507,0.100597597837,0.407,0.45,1,1,2,1165,5
0.0747254417964,0.000101892570865,0.130660176677,1.00690611304,0.51,0.45,3,3,1,1166,5
0.131267143702,1.08308358785,0.0508547676879,0.14966319576,0.347,0.45,1,1,2,1167,5
0.0863797206023,0.0313443995659,1.29962793126,0.158005717911,0.368,0.45,2,2,2,1168,5
1.37845862801,0.0177064121756,0.0496972742932,0.0989804289983,0.339,0.45,1,0,-1,1169,5
1.19444287064,0.0250316220715,0.054877881857,0.0668148887827,0.361,0.45,0,0,2,1170,5
0.0490977836992,0.0266423982394,0.0566379955445,1.27643090877,0.495,0.45,3,3,1,1171,5
0.0538255772091,0.0260254195434,1.18178721034,0.0807599943557,0.425,0.45,2,2,2,1172,5
1.30544559778,0.0826167435652,0.0649138544179,0.108456359097,0.428,0.45,0,0,2,1173,5
0.0931153115748,0.0293244269021,1.05294759011,0.0552507189955,0.356,0.45,2,2,2,1174,5
0.0774864653546,0.0295546592606,0.0674026940112,1.13561631189,0.433,0.45,3,3,2,1175,5
1.05910536655,0.0310763944133,0.0641461648112,0.125520518399,0.478,0.45,0,0,1,1176,5
0.102288721353,1.2853505213,0.069556810347,0.223936430936,0.425,0.45,1,1,2,1177,5
0.0638187415572,0.0330795646512,0.0521200686945,0.119693530615,0.7,0.45,3,-1,0,1179,5
0.0649135870729,0.0398480848284,0.038190131997,1.12293206262,0.21,0.45,1,3,-1,1179,5
0.0620940355172,0.0321374097306,1.07610378601,0.067324075983,0.437,0.45,2,2,2,1180,5
0.110000604978,1.218576708,0.189960150045,0.0557837318764,0.406,0.45,1,1,2,1181,5
0.0439715029554,0.0576828273279,1.3182445354,0.0367762508166,0.34,0.45,2,2,2,1182,5
1.70914157728,0.0267979849243,0.0507919247644,0.163192301444,0.349,0.45,0,0,2,1183,5
0.035303006685,0.0289023623242,0.0412413441116,1.24070044925,0.396,0.45,3,3,2,1184,5
0.0682605181701,0.0235959436866,1.03357835145,0.173130083428,0.536,0.45,2,2,1,1185,5
0.0405670737468,0.120701343277,0.0316201083537,1.09833171471,0.597,0.45,3,3,1,1186,5
1.39746009898,0.0400186074057,0.0357353754089,0.140597975372,0.433,0.45,0,0,2,1187,5
0.0497014467149,1.34376780071,0.0380635010427,0.160217176345,0.378,0.45,1,1,2,1188,5
0.0564796315862,1.10259665193,0.0270731462726,0.240054505759,0.384,0.45,0,1,-1,1189,5
0.0685286913602,0.0662860525514,0.0550757749195,1.13114677497,0.49,0.45,2,3,-1,1190,5
0.0927706380627,0.0642773817709,1.04149690335,0.0908203526984,0.668,0.45,1,2,-1,1191,5
0.0901428026952,0.129786878643,0.0902404922914,0.122462375186,0.7,0.45,3,-1,0,1193,5
0.0917086126075,1.26319978576,0.162518653612,0.186894824733,0.545,0.45,1,1,1,1193,5
0.0914349428402,0.0461019099012,0.0633727711726,1.13695488775,0.436,0.45,3,3,2,1194,5
0.0774559879403,0.0858825581365,1.04700727776,0.132865922687,0.475,0.45,2,2,1,1195,5
1.53911051319,0.0345320216781,0.0694241036988,0.132810005177,0.452,0.45,0,0,1,1196,5
0.0661526497915,0.0406445190596,0.0414908431943,1.06719129203,0.495,0.45,3,3,1,1197,5
1.26057533309,0.0407552958948,0.0600881152169,0.121712931255,0.39,0.45,0,0,2,1198,5
0.215248498137,0.0494767374033,1.09636189269,0.0739342815831,0.408,0.45,2,2,2,1199,5
1.00960209411,0.0260763955968,0.0620804545199,0.149496801022,0.35,0.45,1,0,-1,1200,5
0.0835556088075,0.0326586277108,1.10345163614,0.0549111347461,0.391,0.45,2,2,2,1201,5
0.0842437958791,0.0329885361138,0.398893965083,1.01416092198,0.391,0.45,3,3,2,1202,5
1.22779741226,0.0627301435824,0.106255375488,0.120811087697,0.361,0.45,1,0,-1,1203,5
1.46518935896,0.0793992382549,0.146398354679,0.106660905786,0.459,0.45,0,0,1,1204,5
