force_0,force_1,force_2,force_3,rt,rt_threshold,target_finger,selected_finger,score,trial,run
1.00431267088,0.050339312257,0.0849521259791,0.129087880196,0.5,0.45,0,0,1,0,0
0.327159798263,1.07016512162,0.185133711169,0.20752269727,0.479,0.45,1,1,1,1,0
0.261236412603,0.156007115938,0.164577425534,1.28106019357,0.516,0.45,3,3,1,2,0
0.403007495982,0.266485850068,1.07229881803,0.148457698303,0.529,0.45,2,2,1,3,0
0.228360601783,0.0586666606293,0.105460389568,1.04761183475,0.619,0.45,3,3,1,4,0
0.141886902769,1.24265133805,0.0986512814314,0.201604301157,0.553,0.45,1,1,1,5,0
0.321850374538,0.104804921306,1.11254967769,0.053105027668,0.56,0.45,2,2,1,6,0
0.124921037773,1.07573995125,0.0920294983483,0.133264100357,0.586,0.45,1,1,1,7,0
1.21430037627,0.240018162469,0.200676188432,0.213851254065,0.467,0.45,0,0,1,8,0
0.44119740563,0.144022606381,1.04165398008,0.140207571878,0.454,0.45,2,2,1,9,0
1.19452191653,0.0792927062164,0.214832279624,0.264418497227,0.416,0.45,0,0,2,10,0
0.469831698714,0.0921309022312,0.428029708253,1.08209017525,0.458,0.45,3,3,1,11,0
1.13040600272,0.118454673983,0.118767062582,0.261690662392,0.427,0.45,0,0,2,12,0
1.08539231626,0.596746224081,0.146418104142,0.255628575706,0.523,0.45,1,0,-1,13,0
0.151930397972,0.263429529096,1.09141503835,0.136324428873,0.495,0.45,2,2,1,14,0
0.32676959523,0.110768128422,0.2066705313,1.00772503833,0.38,0.45,3,3,2,15,0
0.136534802235,1.11730361486,0.126607312234,0.250839517114,0.519,0.45,2,1,-1,16,0
0.286210575181,1.00578891303,0.0985931298727,0.115418170757,0.582,0.45,1,1,1,17,0
0.23440013331,0.0984144620015,0.335329596585,1.11529700742,0.535,0.45,3,3,1,18,0
1.13915048883,0.159994063147,0.109848687295,0.286534682874,0.438,0.45,0,0,2,19,0
0.329683659184,0.100041389908,1.04850263116,0.202215064383,0.466,0.45,2,2,1,20,0
1.18249469678,0.122250481954,0.0844140335212,0.207952069769,0.444,0.45,0,0,2,21,0
0.383297302189,0.123002267174,0.18065053566,1.10092112709,0.443,0.45,3,3,2,22,0
0.172085829014,1.08732919401,0.0807722473529,0.256888397089,0.458,0.45,1,1,1,23,0
1.2412559773,0.117202965586,0.13416048475,0.23664476319,0.418,0.45,0,0,2,24,0
0.312667891561,0.141435381615,1.02241792378,0.617165797986,0.423,0.45,2,2,2,25,0
0.161824751169,0.0353840249834,0.876281039777,1.04104363951,0.506,0.45,3,3,1,26,0
0.230425639354,1.06908203208,0.615822454789,0.0457978780045,0.597,0.45,1,1,1,27,0
0.209517425395,0.120062077815,0.0616617058383,1.10952555335,0.615,0.45,3,3,1,28,0
0.207837482778,1.00962620641,0.0435443482878,0.165585719532,0.553,0.45,2,1,-1,29,0
0.158819020862,0.0807919164883,0.0245697286495,0.146123338199,0.7,0.45,1,-1,0,31,0
1.09534722325,0.144367646179,0.0235846874517,0.164605958631,0.663,0.45,0,0,1,31,0
0.170063346622,0.0509704183239,0.219858653076,1.11764843049,0.439,0.45,3,3,2,32,0
1.28787223428,0.0256808704595,0.10557117911,0.122485503606,0.439,0.45,0,0,2,33,0
0.221398332356,1.01733841016,0.05712417169,0.185485729945,0.36,0.45,1,1,2,34,0
0.167168960197,0.0499445019951,1.06667583929,0.103572374417,0.511,0.45,2,2,1,35,0
1.17148883942,0.0841575380132,0.0597176823,0.149129483616,0.423,0.45,0,0,2,36,0
0.25628227889,0.076723049681,1.01158432988,0.192798946265,0.423,0.45,2,2,2,37,0
0.248994565058,1.19846218116,0.103907587269,0.220149673651,0.497,0.45,1,1,1,38,0
0.350244383009,0.0622722561661,0.236683478229,1.07025295162,0.472,0.45,3,3,1,39,0
0.12660906908,1.13006031598,0.0455684626064,0.0312527438406,0.489,0.45,2,1,-1,40,0
0.310380848532,0.0656748876212,0.06777201917,1.18138306377,0.619,0.45,3,3,1,41,0
0.370510166268,1.10602334771,0.100623486659,0.168324280546,0.587,0.45,1,1,1,42,0
1.01413714337,0.0594304047106,0.111578038826,0.120562603118,0.407,0.45,0,0,2,43,0
0.343908999484,1.19056556241,0.297092107493,0.256460823439,0.7,0.45,1,-1,0,45,0
0.343908999484,1.19056556241,0.297092107493,0.256460823439,0.00100000000002,0.45,2,1,-1,45,0
1.50470866033,0.378823498699,0.143926072791,0.218019460781,0.393,0.45,0,0,2,46,0
0.497314119794,0.149982193898,0.413725566542,1.30926454307,0.381,0.45,3,3,2,47,0
1.38498355433,0.31734629253,0.125712460043,0.213909497305,0.337,0.45,0,0,2,48,0
1.04371767421,0.959588788134,0.0410008732357,0.100895444452,0.566,0.45,1,0,-1,49,0
0.104947330744,1.03080326278,0.0177839108757,0.0714014277891,0.524,0.45,2,1,-1,50,0
0.746104205865,0.31222302483,0.276845979631,1.18693488411,0.634,0.45,3,3,1,51,0
0.411350047864,0.302239188458,1.00055354048,0.185399901157,0.619,0.45,2,2,1,52,0
0.27101621161,1.06083476679,0.191682780364,0.239931359384,0.457,0.45,1,1,1,53,0
0.56710829796,0.204327896173,0.276891956951,1.21217653017,0.486,0.45,3,3,1,54,0
1.03247519727,0.225999981248,0.18990857204,0.268136619192,0.403,0.45,0,0,2,55,0
0.460336245421,0.210086356093,0.827495105502,1.13106200328,0.392,0.45,3,3,2,56,0
0.369977905604,1.02062049306,0.182908797097,0.289151964196,0.374,0.45,1,1,2,57,0
1.19690890596,0.213566939464,0.207455659416,0.291447672874,0.355,0.45,0,0,2,58,0
0.474431956176,0.163722659823,0.871484831673,1.02507499872,0.432,0.45,2,3,-1,59,0
1.33519816945,0.212127613966,0.184148408932,0.238651537077,0.396,0.45,0,0,2,60,0
1.01801928045,0.158740789793,0.188543912022,0.25505537296,0.437,0.45,1,0,-1,61,0
0.299584655689,0.136586139835,1.18698830979,0.187973902517,0.387,0.45,2,2,2,62,0
0.349835411698,0.123341881275,0.152062531975,1.02311216823,0.306,0.45,3,3,2,63,0
0.267639187066,1.04056174881,0.12060239755,0.172603981509,0.499,0.45,1,1,1,64,0
0.35825052982,0.0526067867645,0.0305029684258,1.04994943369,0.467,0.45,3,3,1,65,0
0.188888991814,0.0572218151751,0.814288973047,0.116840909912,0.7,0.45,2,-1,0,67,0
0.251173751827,0.0518745986019,1.17294922897,0.128044145155,0.019,0.45,1,2,-1,67,0
1.29924336803,0.025981562168,0.0332638776357,0.166476387905,0.292,0.45,0,0,2,68,0
0.174250058563,0.0335479655124,1.0339386749,0.801937298511,0.367,0.45,3,2,-1,69,0
1.12351280101,0.0901156028863,0.0633013312849,0.174755405075,0.396,0.45,0,0,2,70,0
0.400752431789,0.0158741978519,1.24266069338,0.167974712559,0.432,0.45,2,2,2,71,0
1.1261377861,0.0286087462953,0.0473484773398,0.149105344765,0.471,0.45,0,0,1,72,0
0.214823370281,0.0401776864572,1.10296370267,0.131715656584,0.475,0.45,2,2,1,73,0
0.252070391297,0.0657415134201,0.0859734740227,1.17531680385,0.423,0.45,3,3,2,74,0
0.286887843108,1.40901330336,0.110745435952,0.201197342361,0.514,0.45,1,1,1,75,0
0.177594913724,0.105508658778,1.07748968824,0.171150034313,0.463,0.45,2,2,1,76,0
0.22960160769,1.1622582844,0.159810846995,0.265251393981,0.439,0.45,1,1,2,77,0
0.327113466645,0.193578066407,0.185852507032,1.1334777725,0.405,0.45,3,3,2,78,0
1.30114328952,0.247495590246,0.181870135025,0.271395648925,0.454,0.45,0,0,1,79,0
0.299535267369,0.191005392951,0.180207704226,1.15343931046,0.403,0.45,3,3,2,80,0
0.25737536432,0.199378783954,1.1571888842,0.272481683892,0.399,0.45,2,2,2,81,0
1.04600080352,0.237046954292,0.225614005995,0.248820572616,0.409,0.45,0,0,2,82,0
0.332804867545,1.14465348158,0.208262005383,0.231840813064,0.453,0.45,1,1,1,83,0
1.1527458112,0.150976094097,0.179395304369,0.193844323193,0.448,0.45,0,0,2,84,0
0.215838963192,1.08334326024,0.153476792432,0.194112646278,0.393,0.45,1,1,2,85,0
0.23900331814,0.114492395877,1.13824673194,0.146541227963,0.407,0.45,2,2,2,86,0
0.342812006235,0.133883227352,0.125428194035,1.16359743106,0.409,0.45,3,3,2,87,0
0.174322576069,0.126531210273,1.05498301372,0.127344916409,0.402,0.45,2,2,2,88,0
0.188550290021,1.02300093653,0.138053358252,0.198149542842,0.459,0.45,1,1,1,89,0
0.44752930472,0.0506200161977,0.0688380240673,1.01388499811,0.436,0.45,3,3,2,90,0
1.07659454851,0.0956690705919,0.0811793737076,0.120784923514,0.368,0.45,0,0,2,91,0
0.33266660366,0.10116484842,0.778836761129,1.2282015264,0.382,0.45,3,3,2,92,0
0.335691766728,1.027129352,0.236398711867,0.206956197997,0.34,0.45,1,1,2,93,0
1.25989400739,0.138737785445,0.107304833761,0.152926971808,0.308,0.45,0,0,2,94,0
0.134941302388,0.245894209676,1.09497135107,0.386872500557,0.406,0.45,2,2,2,95,0
1.11633663246,0.0342883014044,0.168038158571,0.0818152953889,0.402,0.45,0,0,2,96,0
0.223735632422,1.07648939311,0.238362419898,0.138755278623,0.42,0.45,1,1,2,97,0
0.296066974378,0.0625420247163,0.249924359823,1.06827432977,0.409,0.45,3,3,2,98,0
0.247669882195,0.153694688046,1.04153203975,0.171843289206,0.528,0.45,2,2,1,99,0
0.274475537561,0.0864582248372,0.13335345681,1.15421532989,0.501,0.45,3,3,1,100,0
0.329720067029,1.04354384774,0.102222225268,0.0627702859756,0.478,0.45,1,1,1,101,0
0.212329504771,0.0958546667279,1.01929675039,0.0927276333827,0.469,0.45,2,2,1,102,0
1.09495405468,0.100086751245,0.118933490848,0.13970073136,0.443,0.45,0,0,2,103,0
0.216790867391,0.216329398825,1.13071327167,0.123124612508,0.4,0.45,2,2,2,104,0
1.01642189398,0.214662592155,0.169574150237,0.189538131724,0.361,0.45,1,0,-1,105,0
1.19551481629,0.0469371781149,0.0136976743197,0.0550149439878,0.437,0.45,0,0,2,106,0
0.320463635052,0.0661095056808,0.592549209842,1.03915045647,0.436,0.45,3,3,2,107,0
1.07884122452,0.168351642773,0.0974657097149,0.210116898863,0.479,0.45,0,0,1,108,0
0.432881026482,0.191531346123,1.11864818032,0.252629085332,0.471,0.45,2,2,1,109,0
0.317475373214,0.158471010788,0.124442453325,1.08141768824,0.371,0.45,3,3,2,110,0
0.290910389975,1.07348139531,0.130901199618,0.234094163108,0.399,0.45,1,1,2,111,0
0.140602044605,0.0807922872456,1.00701751082,0.197073552646,0.436,0.45,2,2,2,112,0
0.192953750162,1.1377093622,0.124458120068,0.241448301728,0.446,0.45,1,1,2,113,0
0.207851755233,0.163686395992,0.156317562223,1.07161047671,0.384,0.45,3,3,2,114,0
1.20254806805,0.324275961759,0.123372756931,0.220400240375,0.468,0.45,0,0,1,115,0
0.133901871965,1.09160672433,0.200122717143,0.284325677454,0.51,0.45,1,1,1,116,0
0.14774019042,0.174826584351,0.140840890024,0.240521544134,0.7,0.45,0,-1,0,118,0
1.18898315584,0.174116053832,0.138037951886,0.237240790506,0.0680000000001,0.45,3,0,-1,118,0
0.217291414629,1.11896334068,0.109144795829,0.189114717513,0.561,0.45,2,1,-1,119,0
1.1744161165,0.374212695587,2.48558655032e-05,0.127430500356,0.653,0.45,0,0,1,120,0
0.134446631483,0.0886716009378,0.0605129977085,1.11784148324,0.524,0.45,3,3,1,121,0
0.161392168525,1.09930507719,0.0453001924791,0.148955559375,0.507,0.45,1,1,1,122,0
0.219942246101,0.132105744875,1.11552181921,0.204025103222,0.431,0.45,2,2,2,123,0
0.157005238224,0.0927009108876,0.187641491158,1.11752214478,0.397,0.45,3,3,2,124,0
0.253365111625,0.430201541994,1.05584999935,0.263359592434,0.542,0.45,2,2,1,125,0
0.185181146612,1.02796578838,0.135792422755,0.270938938689,0.416,0.45,1,1,2,126,0
1.06407582076,0.146316993057,0.122637332371,0.28269693517,0.379,0.45,0,0,2,127,0
0.336515162052,0.0932132559872,1.06871508358,0.266871538432,0.344,0.45,2,2,2,128,0
1.0962649051,0.100788040238,0.122545855476,0.308661297623,0.436,0.45,0,0,2,129,0
0.73090635531,1.13746922569,0.195025632445,0.281223864721,0.545,0.45,1,1,1,130,0
0.258221686027,0.188975886021,0.177369235939,1.13443359861,0.42,0.45,3,3,2,131,0
1.13644256214,0.185558945288,0.154711989733,0.229594024089,0.395,0.45,0,0,2,132,0
0.290959929202,0.124397843189,1.00940094116,0.236574622422,0.344,0.45,2,2,2,133,0
0.174465340902,1.02170750318,0.119939762626,0.221900456446,0.421,0.45,1,1,2,134,0
0.185335128565,0.0601991499796,0.0689841249871,1.1545704216,0.398,0.45,3,3,2,135,0
0.155301228253,1.0972580679,0.0788979030325,0.192120371645,0.441,0.45,1,1,2,136,0
0.150809881541,0.0676392286553,1.10401678645,0.19009243627,0.417,0.45,2,2,2,137,0
0.249547738457,0.0644880799253,0.139585840281,1.05327127893,0.4,0.45,3,3,2,138,0
0.192910143806,0.0924043693101,1.0809243698,0.198082952774,0.578,0.45,2,2,1,139,0
1.0170232958,0.11118799857,0.0833993148382,0.212608337636,0.402,0.45,0,0,2,140,0
0.149397874512,1.13253473562,0.0979495611456,0.235768828257,0.432,0.45,1,1,2,141,0
1.19856702356,0.121212367367,0.0591799202593,0.171465230846,0.435,0.45,0,0,2,142,0
0.149156225263,0.051402780402,0.291771011114,1.17671776245,0.402,0.45,3,3,2,143,0
1.0834947549,0.118886650025,0.149362511098,0.18205556148,0.436,0.45,0,0,2,144,0
0.368545078904,0.063571491537,0.16656010235,1.14536944868,0.417,0.45,3,3,2,145,0
0.204109373544,1.13005970957,0.12703796269,0.153868800649,0.48,0.45,1,1,1,146,0
0.23358695895,0.10037545026,1.09978267145,0.132949742231,0.434,0.45,2,2,2,147,0
0.290178984761,0.0931180458191,0.0934614630316,1.16142648978,0.419,0.45,3,3,2,148,0
0.265205538567,0.290463019059,1.03325589531,0.19900740401,0.594,0.45,2,2,1,149,0
0.155704241418,1.07009791385,0.0620218236472,0.180847393352,0.538,0.45,1,1,1,150,0
0.191869484172,0.11574339497,0.129741398314,1.01512843666,0.437,0.45,3,3,2,151,0
1.08450561709,0.141889577113,0.0983466462905,0.187620475804,0.402,0.45,0,0,2,152,0
0.339118677009,1.02306083354,0.467296425322,0.15761189973,0.485,0.45,1,1,1,153,0
1.25423058464,0.0560226015879,0.0924201471897,0.320329960952,0.606,0.45,0,0,1,154,0
0.148776940417,0.0942407502952,1.00493164196,0.14906433609,0.512,0.45,2,2,1,155,0
1.11533915976,0.0438542387429,0.0933986531674,0.140836026271,0.418,0.45,0,0,2,156,0
0.919518830149,1.23202446416,0.0948444396512,0.100510444575,0.45,0.45,1,1,1,157,0
0.196084260994,0.0663279430677,0.166515374524,1.13689602561,0.406,0.45,3,3,2,158,0
0.171407295628,0.132478019393,1.12134533527,0.146241001518,0.439,0.45,2,2,2,159,0
0.252470120779,0.0644613016215,0.236716373625,1.11472115273,0.5,0.45,3,3,1,160,0
1.11942560829,0.0772863758693,0.0534390772469,0.148097596816,0.433,0.45,1,0,-1,161,0
0.0661449177545,0.0503382505647,1.15181376143,0.248276284355,0.508,0.45,2,2,1,162,0
0.188757666028,1.13446930941,0.0807037524401,0.206105391185,0.452,0.45,1,1,1,163,0
1.20236924955,0.19438846623,0.165913039731,0.23549467566,0.472,0.45,0,0,1,164,0
0.211791450579,0.137471970899,1.07615587504,0.193405039497,0.367,0.45,2,2,2,165,0
1.0963084785,0.0763358927655,0.0868750750888,0.147573847424,0.382,0.45,0,0,2,166,0
0.209259751493,0.0869209684141,1.14319951109,0.152276866324,0.384,0.45,3,2,-1,167,0
1.28159074512,0.22277156995,0.0892726562018,0.0709575694527,0.432,0.45,0,0,2,168,0
0.267217566681,0.176748272005,1.05178501802,0.114627893979,0.434,0.45,2,2,2,169,0
0.194727960167,0.094686718294,0.121767516017,1.04862800655,0.389,0.45,3,3,2,170,0
0.144820218093,1.08327189151,0.0959531555231,0.183031891071,0.394,0.45,1,1,2,171,0
0.158919677154,0.103581505096,0.133592678022,1.11723502915,0.367,0.45,3,3,2,172,0
0.169786173893,0.437253896056,1.00752891414,0.184570205873,0.532,0.45,2,2,1,173,0
1.10859709831,0.0758069691613,0.0865254872107,0.17821669492,0.477,0.45,1,0,-1,174,0
0.106382900113,0.0795463339929,1.10265542352,0.178791900638,0.506,0.45,2,2,1,175,0
1.12287588481,0.0551142426687,0.098515652683,0.194980467247,0.457,0.45,0,0,1,176,0
0.121938606356,0.0750677029586,0.141010794394,1.03158157269,0.367,0.45,3,3,2,177,0
1.17265588242,0.0952679414979,0.092691475854,0.129437521763,0.436,0.45,0,0,2,178,0
0.307454224563,1.0923980655,0.118493571466,0.157238393902,0.368,0.45,1,1,2,179,0
1.12892510083,0.120550145164,0.118623860064,0.189826174393,0.461,0.45,0,0,1,180,0
0.277700616121,0.0883375771733,1.0511124009,0.14613770888,0.434,0.45,2,2,2,181,0
1.06038910638,0.117701428368,0.15908898888,0.156601132842,0.463,0.45,1,0,-1,182,0
0.202884484614,0.0957449017102,0.0881846177639,1.10875082708,0.434,0.45,3,3,2,183,0
0.292602125561,1.07399314008,0.0961324710534,0.233512232661,0.399,0.45,1,1,2,184,0
0.163262275074,0.057846858476,1.04101008166,0.300780107655,0.437,0.45,2,2,2,185,0
0.342067345256,0.0893024418886,0.16238337054,1.02591429568,0.454,0.45,3,3,1,186,0
0.278152671708,0.342900107325,1.11321076763,0.20713135211,0.548,0.45,2,2,1,187,0
1.03731804583,0.191440242692,0.191686013808,0.240889114266,0.534,0.45,0,0,1,188,0
0.217093951212,0.0907627919785,0.438110906199,1.03109400743,0.458,0.45,3,3,1,189,0
1.12904996106,0.208279228274,0.102173117962,0.19800853897,0.483,0.45,0,0,1,190,0
0.426483439251,1.07522248767,0.58489165669,0.203529034429,0.566,0.45,1,1,1,191,0
1.18355535607,0.0662260294011,0.0322093518566,0.126550246016,0.535,0.45,0,0,1,192,0
0.24253032532,0.0631066988971,1.18321372234,0.15109743832,0.522,0.45,2,2,1,193,0
0.167813209268,0.0593646175219,0.874609567646,1.03140113616,0.634,0.45,3,3,1,194,0
0.218815819473,1.07649603977,0.10698048467,0.207116046722,0.582,0.45,1,1,1,195,0
0.243017318552,0.0730357789438,0.00477760108567,1.16733681279,0.562,0.45,3,3,1,196,0
0.154153521783,1.10764200799,0.04114034573,0.119513278254,0.548,0.45,2,1,-1,197,0
0.105989233098,0.49024760955,0.0122953349124,0.102063473371,0.7,0.45,1,-1,0,199,0
0.135457346976,1.04596642799,0.0119673047314,0.105603112347,0.0280000000001,0.45,2,1,-1,199,0
1.33893037101,0.109578516416,0.0339367133261,0.039812621593,0.433,0.45,0,0,2,200,0
0.113135834097,0.0678131562339,0.0862520072513,1.08197355702,0.344,0.45,3,3,2,201,0
1.28138504072,0.153718612906,0.110300952536,0.126950809184,0.438,0.45,0,0,2,202,0
0.150868261854,1.04445936895,0.111347234314,0.139855370468,0.381,0.45,1,1,2,203,0
1.14106225953,0.132645943941,0.0395597024744,0.0806940387733,0.424,0.45,0,0,2,204,0
0.186885841193,0.0836417602227,1.08248172292,0.0905262527051,0.435,0.45,2,2,2,205,0
0.163799357531,0.0781262803341,0.143886811356,1.00229513225,0.386,0.45,3,3,2,206,0
0.250293099919,1.1058435546,0.0536406222889,0.168309764386,0.4,0.45,1,1,2,207,0
0.142311627365,0.0626884356589,0.0535365966493,1.01288038836,0.409,0.45,3,3,2,208,0
0.24818205288,0.414311596501,1.03548279284,0.267981109506,0.546,0.45,2,2,1,209,0
0.3981275889,1.03623700903,0.113430262332,0.203516639701,0.5,0.45,1,1,1,210,0
0.0830618802247,0.305597784793,1.03494057577,0.0874155553262,0.62,0.45,2,2,1,211,0
1.07763609331,0.123773012489,0.148905391512,0.250061368734,0.564,0.45,0,0,1,212,0
0.247948519201,0.183779290261,0.227064886248,1.09216195421,0.454,0.45,3,3,1,213,0
1.18729633644,0.162820148911,0.128774261598,0.156569716417,0.335,0.45,0,0,2,214,0
0.287729143802,1.18181297491,0.165636652666,0.179640001726,0.365,0.45,1,1,2,215,0
1.03038056389,0.151612546206,0.132757670408,0.216147749411,0.465,0.45,0,0,1,216,0
0.203512269309,1.01404238756,0.268250137262,0.385914812855,0.645,0.45,1,1,1,217,1
0.215301516344,0.156887902989,0.169767088309,1.01497016904,0.405,0.45,3,3,2,218,1
1.22606838815,0.204690102435,0.137996770587,0.281366568901,0.39,0.45,0,0,2,219,1
0.202500930854,0.167824440023,1.06416413718,0.339992506539,0.385,0.45,2,2,2,220,1
0.240928131738,0.125347550158,0.320102436829,1.03969842305,0.405,0.45,3,3,2,221,1
0.262929215701,1.13901711572,0.129564239821,0.219799866421,0.369,0.45,2,1,-1,222,1
1.27303273219,0.162484788542,0.103004753635,0.202953804224,0.409,0.45,0,0,2,223,1
0.403447005917,1.13123118598,0.108690188997,0.173315734236,0.371,0.45,1,1,2,224,1
1.12473495898,0.155329096829,0.0794512488846,0.201749480551,0.407,0.45,0,0,2,225,1
0.332033643347,0.148826309827,0.579063860658,1.0950153158,0.369,0.45,3,3,2,226,1
0.278316372554,1.11366984778,0.119798989316,0.221036582863,0.35,0.45,1,1,2,227,1
0.406481717321,0.128185485412,1.15215352798,0.312910402705,0.454,0.45,2,2,1,228,1
1.07079374915,0.212439504017,0.153092059469,0.162699025997,0.395,0.45,1,0,-1,229,1
1.12480459278,0.154687278793,0.087485511143,0.10934324784,0.416,0.45,0,0,2,230,1
0.366458019184,0.121766302028,0.125849573164,1.11932051443,0.353,0.45,3,3,2,231,1
0.168766040203,0.291303690935,1.038899948,0.186632986088,0.426,0.45,2,2,2,232,1
0.260863513352,0.154987984886,0.155249877944,1.03091473398,0.497,0.45,3,3,1,233,1
1.20244238866,0.150220030172,0.0935418021849,0.232669398904,0.419,0.45,0,0,2,234,1
0.21905125795,1.05162216054,0.142395231031,0.213634779675,0.386,0.45,2,1,-1,235,1
0.232032609706,1.00824668879,0.104204937868,0.174636571687,0.471,0.45,1,1,1,236,1
0.369819775765,0.112543689679,0.103309753004,1.11301122659,0.409,0.45,3,3,2,237,1
1.31747927143,0.168590419145,0.0906875704408,0.162139553944,0.432,0.45,1,0,-1,238,1
0.209983754624,0.136546617106,1.18924385982,0.181693024663,0.48,0.45,2,2,1,239,1
1.22627368659,0.126469776499,0.120083768741,0.177873902431,0.449,0.45,0,0,2,240,1
0.395166609319,1.1457279695,0.147466539182,0.16865616645,0.471,0.45,1,1,1,241,1
0.215705528253,0.0912781168949,1.16063030317,0.124171243972,0.403,0.45,2,2,2,242,1
1.1590190516,0.11362556861,0.137195960044,0.15218071082,0.404,0.45,0,0,2,243,1
0.318070936041,0.0889120008006,0.619159648868,1.07382229803,0.424,0.45,3,3,2,244,1
1.38238647463,0.14729740946,0.114314596959,0.175151618099,0.554,0.45,0,0,1,245,1
0.180713732892,0.0909836618982,1.03585818645,0.134758341355,0.516,0.45,2,2,1,246,1
0.254212520076,0.0968021708448,0.101417100625,1.0658718863,0.474,0.45,3,3,1,247,1
0.163589293094,0.116445399249,1.07008674823,0.155895688582,0.551,0.45,2,2,1,248,1
0.295063020461,1.20327738512,0.160092804319,0.208609186249,0.497,0.45,1,1,1,249,1
0.315569382782,0.151861826529,0.214674452139,1.18133671612,0.514,0.45,3,3,1,250,1
1.00180126088,0.282933688123,0.162339002673,0.239340221745,0.479,0.45,1,0,-1,251,1
1.18085205991,0.0948179198097,0.0982727764205,0.109181329618,0.621,0.45,0,0,1,252,1
0.231677338195,1.08552346653,0.118625302738,0.110589024337,0.495,0.45,1,1,1,253,1
1.18718375591,0.234749753195,0.131858830557,0.170565988328,0.548,0.45,0,0,1,254,1
0.386857677376,0.209637521714,0.188324627814,1.03425504067,0.491,0.45,3,3,1,255,1
0.332172765698,0.131899430289,1.07641216037,0.246324834686,0.495,0.45,2,2,1,256,1
0.262259923533,0.201911080087,0.197740701221,1.07003194405,0.522,0.45,3,3,1,257,1
1.19131362873,0.19065146424,0.142890323987,0.188776818054,0.438,0.45,0,0,2,258,1
0.149927442922,0.133949727444,1.00589702965,0.140118119467,0.472,0.45,2,2,1,259,1
1.19276108221,0.229878600724,0.132763147581,0.181720772533,0.474,0.45,0,0,1,260,1
0.123138283301,1.10177861638,0.11632638864,0.180645148345,0.424,0.45,1,1,2,261,1
0.175607262608,0.119207768942,1.01391345469,0.30499678259,0.408,0.45,3,2,-1,262,1
0.318866190716,1.10680923624,0.127255657897,0.180781672181,0.51,0.45,1,1,1,263,1
0.337084126033,0.193636499358,0.248689604899,1.04321545154,0.479,0.45,2,3,-1,264,1
0.251990535387,1.12628521317,0.251606935932,0.060970849942,0.56,0.45,1,1,1,265,1
1.10350133466,0.23985480005,0.076966965337,0.058860118859,0.426,0.45,0,0,2,266,1
0.266308325747,0.0978886734665,1.0380006325,0.04557847535,0.474,0.45,2,2,1,267,1
0.403234948635,0.147407779958,0.19355331771,1.05957235832,0.471,0.45,3,3,1,268,1
0.210191735618,0.565094797357,1.02827139399,0.0875841043318,0.592,0.45,2,2,1,269,1
1.19822135719,0.106539745112,0.112152346263,0.0778702739404,0.482,0.45,0,0,1,270,1
0.287822024242,0.133377094012,0.210969538041,1.10788371107,0.422,0.45,3,3,2,271,1
1.30370731447,0.213837847938,0.119999085025,0.0956295779884,0.415,0.45,0,0,2,272,1
1.18812815446,0.171406140313,0.161147341316,0.141116884113,0.419,0.45,1,0,-1,273,1
0.14506505665,0.096064693808,1.11351412097,0.055214642515,0.425,0.45,2,2,2,274,1
0.558113148509,1.10315581473,0.0723717341925,0.155143127199,0.496,0.45,1,1,1,275,1
0.225001447879,0.103660569558,0.150497054977,1.04858014572,0.408,0.45,3,3,2,276,1
0.238273855999,1.05505269412,0.0614731726795,0.0991277718571,0.416,0.45,1,1,2,277,1
1.23247191716,0.25194402625,0.0750808311977,0.113982846058,0.356,0.45,0,0,2,278,1
0.105412920935,0.0994875054961,0.83251354959,1.13025486752,0.397,0.45,3,3,2,279,1
0.292471391932,0.185853888212,1.10017948578,0.164140889485,0.431,0.45,2,2,2,280,1
0.327123904311,0.178971292507,0.209383576973,1.03285298818,0.608,0.45,3,3,1,281,1
1.13850333194,0.200559916606,0.171670473194,0.151988420959,0.539,0.45,0,0,1,282,1
0.347319629202,0.17811000971,1.19514452222,0.266219791656,0.511,0.45,2,2,1,283,1
0.409822408883,1.03087903499,0.188320890139,0.174768587789,0.545,0.45,1,1,1,284,1
0.226176192931,0.114094267173,1.12445720655,0.146239233429,0.535,0.45,2,2,1,285,1
1.09983024421,0.239604376885,0.139379056729,0.159996264364,0.434,0.45,0,0,2,286,1
0.296273475085,1.06166071458,0.339387718839,0.192092923506,0.477,0.45,1,1,1,287,1
0.293341623601,0.266691002574,0.297076615942,1.07421957361,0.478,0.45,3,3,1,288,1
0.19670771886,1.03637157,0.208987144275,0.154993308941,0.475,0.45,1,1,1,289,1
1.17611075087,0.259808524596,0.24186863194,0.162982104865,0.454,0.45,0,0,1,290,1
0.214151588842,0.201284440306,1.04130704655,0.125459351197,0.466,0.45,2,2,1,291,1
0.23769467438,0.138787268093,0.116045345802,1.01043151384,0.408,0.45,3,3,2,292,1
1.05039142561,0.195750423927,0.131816213449,0.155203770491,0.454,0.45,0,0,1,293,1
0.257870165695,0.190853475315,0.259724227062,1.08810530495,0.461,0.45,3,3,1,294,1
0.15930555586,0.170127346823,1.07679213212,0.15897683548,0.518,0.45,2,2,1,295,1
1.20666235372,0.178469034234,0.0855921353762,0.113075490614,0.516,0.45,0,0,1,296,1
0.253224362728,1.04453602823,0.173436635166,0.165962327531,0.495,0.45,1,1,1,297,1
0.225086404428,0.0803781943959,1.08637049076,0.12756027972,0.504,0.45,2,2,1,298,1
1.07616947259,0.193127683275,0.0960603919506,0.147215768067,0.442,0.45,1,0,-1,299,1
0.238326356951,0.283353233903,0.216932524868,1.09370959071,0.474,0.45,3,3,1,300,1
0.20804263604,1.09224554864,0.210585573106,0.148684899134,0.429,0.45,1,1,2,301,1
1.25687438563,0.293402480892,0.250878057971,0.139459629926,0.445,0.45,0,0,2,302,1
0.296028562913,0.304168452122,1.06940732834,0.150259640366,0.436,0.45,2,2,2,303,1
0.270942769818,0.249766610348,0.27526350294,1.09514912262,0.438,0.45,3,3,2,304,1
1.14453066114,0.355978135977,0.186318716062,0.165005888273,0.485,0.45,0,0,1,305,1
0.282960905428,0.278939993677,0.41818108046,1.08928256957,0.476,0.45,3,3,1,306,1
0.23574969126,0.264759470996,1.06946209996,0.204986599953,0.523,0.45,2,2,1,307,1
1.12586268892,0.309471130121,0.178978068823,0.183166281266,0.633,0.45,0,0,1,308,1
0.214034008857,1.15064366946,0.25442101805,0.254225199528,0.485,0.45,1,1,1,309,1
0.168035274909,1.1291987632,0.368457021886,0.185103076482,0.508,0.45,2,1,-1,310,1
0.0500692932487,1.13666658496,0.0485784327466,0.0830862312236,0.594,0.45,1,1,1,311,1
0.171817086562,0.165231805418,0.0517429908205,1.21688024883,0.514,0.45,3,3,1,312,1
0.366051113677,1.11556842269,0.0283767257866,0.153392403234,0.633,0.45,1,1,1,313,1
1.31075631461,0.189698970576,0.0243296888351,0.0513717363921,0.478,0.45,0,0,1,314,1
0.238748154735,0.155475301893,0.0323371801382,1.14023633393,0.449,0.45,3,3,2,315,1
0.189674081221,0.206751030599,0.0445916243437,1.03328059303,0.566,0.45,2,3,-1,316,1
0.0822022782066,1.06192823848,0.116902953041,-0.0155914465785,0.602,0.45,0,1,-1,317,1
0.194085847804,0.0871168172649,1.0441953332,0.00299851503491,0.53,0.45,2,2,1,318,1
0.301641576252,0.131331711204,0.174262229746,1.2066726527,0.452,0.45,3,3,1,319,1
0.242938698567,1.11654062601,0.162290111144,0.135353146425,0.448,0.45,1,1,2,320,1
0.214271142227,0.178949208903,1.03804298246,0.885740525586,0.485,0.45,2,2,1,321,1
0.479198801547,1.08390982328,0.158132982385,0.0198357911839,0.485,0.45,1,1,1,322,1
0.253989832385,0.189195222232,0.116166092124,1.16240059855,0.475,0.45,3,3,1,323,1
1.04964128667,0.279547170424,0.112268012911,0.159694705668,0.43,0.45,0,0,2,324,1
0.290811179654,1.03212196903,0.162765741862,0.143798195363,0.397,0.45,1,1,2,325,1
0.257744691051,0.214041185906,1.02808652068,0.145304486422,0.413,0.45,2,2,2,326,1
0.211373618976,0.152721974126,0.199962878567,1.07579037745,0.365,0.45,3,3,2,327,1
1.17538820552,0.191658998603,0.158115072006,0.185847760557,0.324,0.45,0,0,2,328,1
0.227699223164,0.187441374326,1.01669815895,0.425349620463,0.389,0.45,3,2,-1,329,1
0.199918080343,0.727518047452,1.06634216891,0.189121078712,0.568,0.45,2,2,1,330,1
1.02587465816,0.0936907883458,0.186233606456,0.242465507352,0.485,0.45,0,0,1,331,1
0.290160883299,1.15134844441,0.192237064261,0.187349518196,0.431,0.45,1,1,2,332,1
0.175455889292,0.163038202677,0.170053770988,1.07164381323,0.438,0.45,3,3,2,333,1
0.656672077226,1.03249358207,0.0938116405684,0.18058187461,0.521,0.45,1,1,1,334,1
1.20743750661,0.136517401318,0.119558009719,0.127634282772,0.46,0.45,0,0,1,335,1
0.231698218674,0.175027229531,1.01399083448,0.170679404731,0.396,0.45,2,2,2,336,1
0.279306990423,1.05246695968,0.192247945338,0.137013431466,0.502,0.45,1,1,1,337,1
0.149098124447,0.0709203370389,1.14675047229,0.051565817602,0.464,0.45,2,2,1,338,1
1.22568555885,0.0677402864102,0.0552209839772,0.119855502363,0.503,0.45,0,0,1,339,1
0.362869025359,0.0861804406606,0.402897177177,1.11787864452,0.527,0.45,3,3,1,340,1
0.25642309329,1.23134555685,0.210693650235,0.172415021964,0.477,0.45,2,1,-1,341,1
0.275665094461,0.195804139149,0.191601069582,1.20390537956,0.534,0.45,3,3,1,342,1
1.09404935479,0.245033333088,0.15788301246,0.187431670567,0.503,0.45,0,0,1,343,1
0.312369098754,0.09790971208,1.08052741989,0.15059248976,0.551,0.45,2,2,1,344,1
1.06425995668,0.173426530951,0.103964156511,0.181977702798,0.427,0.45,1,0,-1,345,1
1.13103716998,0.227446312417,0.167836884341,0.169582739549,0.581,0.45,0,0,1,346,1
0.210422496769,1.0940455418,0.180722160953,0.160946584936,0.447,0.45,1,1,2,347,1
0.174676111273,0.197813809712,0.149325237145,1.14018573578,0.464,0.45,3,3,1,348,1
0.219214369049,1.09456394964,0.131045554134,0.120593000128,0.481,0.45,1,1,1,349,1
0.206597953398,0.157070208812,0.167666549623,1.09623058251,0.427,0.45,3,3,2,350,1
1.14093456776,0.216583107217,0.109048586173,0.152812367868,0.453,0.45,0,0,1,351,1
0.248314476548,0.21539548545,1.02988760881,0.188747273352,0.381,0.45,2,2,2,352,1
0.18959903925,0.102977828422,0.427523896389,1.05899031387,0.377,0.45,3,3,2,353,1
0.201418935853,0.18851103039,1.03003597226,0.105859339245,0.594,0.45,2,2,1,354,1
1.22871417568,0.142061482208,0.0942488865951,0.120794377411,0.441,0.45,0,0,2,355,1
0.220720249942,0.137319667249,0.661842254458,1.08678258117,0.446,0.45,3,3,2,356,1
0.254209753513,1.09068553338,0.218751363437,0.154328034774,0.366,0.45,1,1,2,357,1
0.182453307823,0.108195480478,1.08089344057,0.231138610428,0.385,0.45,2,2,2,358,1
1.00267174748,0.190119130907,0.186748674867,0.131319282767,0.359,0.45,1,0,-1,359,1
1.32520987476,0.186417999726,0.168717866124,0.118700301621,0.512,0.45,0,0,1,360,1
0.285986278896,1.00125766357,0.178681703766,0.123306713687,0.379,0.45,1,1,2,361,1
0.156195054795,0.161435335712,0.12328152502,1.09699737501,0.351,0.45,3,3,2,362,1
0.239565784425,0.176811088426,1.11033365252,0.106722815307,0.556,0.45,2,2,1,363,1
1.06634516335,0.163279103896,0.0817965881787,0.124925392123,0.533,0.45,0,0,1,364,1
0.21540286953,0.143458854795,0.167465934977,1.06032425359,0.5,0.45,3,3,1,365,1
1.28720838622,0.176723549717,0.120936483369,0.14115441374,0.482,0.45,0,0,1,366,1
0.231502796327,0.338365308594,1.13393990712,0.0771515321883,0.543,0.45,2,2,1,367,1
1.092337679,0.0578095699587,0.103298836789,0.0963156874137,0.449,0.45,1,0,-1,368,1
1.0496583725,0.068079957326,0.0507120400886,0.0760720705407,0.485,0.45,0,0,1,369,1
0.201803327634,1.08585245522,0.309527025786,0.0733796075062,0.497,0.45,1,1,1,370,1
0.118041969814,0.121277627435,1.00654839976,0.0566426550421,0.478,0.45,2,2,1,371,1
0.208327039327,0.104833097314,0.114660563002,1.01699125442,0.381,0.45,3,3,2,372,1
0.582270408945,1.03716080823,0.147806393359,0.0970555054508,0.387,0.45,1,1,2,373,1
0.111800243015,0.276949691841,1.0493567879,0.0581629794973,0.461,0.45,2,2,1,374,1
0.276773152817,0.128591814171,0.0792312592703,1.03471560654,0.385,0.45,3,3,2,375,1
1.03581783878,0.209595035905,0.100333791394,0.157418492681,0.382,0.45,0,0,2,376,1
0.251926966067,0.149950889222,0.755104136734,1.01590049389,0.435,0.45,3,3,2,377,1
0.247770590718,1.01552320035,0.192784969454,0.238769963436,0.383,0.45,2,1,-1,378,1
1.05490186238,0.166962202269,0.112720317132,0.16387384378,0.534,0.45,0,0,1,379,1
0.378631718972,0.408659614225,1.10547824444,0.142241027522,0.541,0.45,2,2,1,380,1
0.183025656977,1.06524455046,0.123093878635,0.156606476653,0.523,0.45,1,1,1,381,1
0.356665914746,0.143766253782,0.119519930984,1.07963625102,0.423,0.45,3,3,2,382,1
0.18128630508,1.03638297003,0.0563922685651,0.148554823347,0.423,0.45,1,1,2,383,1
1.16510541223,0.182571854268,0.0679359635229,0.134412313168,0.337,0.45,0,0,2,384,1
0.179966603707,1.08759428715,0.0955394104259,0.131435757837,0.462,0.45,1,1,1,385,1
0.25862365295,0.185572908731,0.069093905704,1.03007479154,0.338,0.45,3,3,2,386,1
0.247878196051,0.207057296918,1.04272632966,0.179185214886,0.376,0.45,2,2,2,387,1
1.14118193151,0.117895394767,0.157680926412,0.154751388662,0.482,0.45,0,0,1,388,1
0.306574496928,0.247997995643,0.262970890137,1.03829774325,0.619,0.45,3,3,1,389,1
1.12713847481,0.255803524482,0.15453135182,0.132328415841,0.496,0.45,0,0,1,390,1
0.376656211531,0.257342208943,1.14081988031,0.173875651803,0.437,0.45,2,2,2,391,1
0.328238452814,1.05257927966,0.134551874458,0.171600241033,0.482,0.45,1,1,1,392,1
1.28218792568,0.254552361956,0.271359792882,0.206125227242,0.448,0.45,0,0,2,393,1
1.02157980518,0.188147121497,0.234663043204,0.160213356173,0.391,0.45,1,0,-1,394,1
0.227656752387,0.211993711615,1.21096136476,0.0684788039442,0.475,0.45,2,2,1,395,1
0.361806458772,0.227046306306,0.102832587469,1.07185386794,0.334,0.45,3,3,2,396,1
1.02468751189,0.21577005619,0.0944233626041,0.124269910403,0.306,0.45,1,0,-1,397,1
0.213557979801,0.157164498761,0.153500774534,1.08866467897,0.439,0.45,3,3,2,398,1
1.08743708664,0.293958790681,0.130996440847,0.111863588314,0.403,0.45,0,0,2,399,1
0.237728643338,0.228124299328,1.20855547168,0.30648362893,0.423,0.45,2,2,2,400,1
0.280256502531,0.209566669695,0.111731457543,1.01860179721,0.603,0.45,3,3,1,401,1
0.275949069114,1.02005942377,0.0834268382732,0.0922340297743,0.558,0.45,2,1,-1,402,1
1.13954012939,0.0891612959123,0.0656413929286,0.0721857270336,0.531,0.45,0,0,1,403,1
0.277139673668,0.246157827831,0.0270050010862,0.108195350939,0.7,0.45,1,-1,0,405,1
0.461950211034,1.03804897916,0.0259217295036,0.10838835493,0.117,0.45,0,1,-1,405,1
0.245609298206,0.152605299335,0.836261727202,1.00853166041,0.398,0.45,3,3,2,406,1
0.236974729899,1.11416073718,0.0696718762183,0.120142311919,0.413,0.45,1,1,2,407,1
0.202416468881,0.190756931598,1.04798098972,0.172330363168,0.426,0.45,2,2,2,408,1
0.193889632681,1.13572288735,0.121428141455,0.126237679919,0.617,0.45,1,1,1,409,1
0.250148894025,0.18113778587,0.174416775482,1.10319112518,0.495,0.45,3,3,1,410,1
0.281805248091,0.633040316583,1.02385483314,0.0661937922855,0.649,0.45,2,2,1,411,1
1.14746384945,0.208997247595,0.0468800260199,0.124696123302,0.528,0.45,0,0,1,412,1
0.352838081126,0.260313167404,1.13076578982,0.130287983788,0.443,0.45,2,2,2,413,1
0.3417142115,0.216540218608,0.126194203771,1.14771556031,0.377,0.45,3,3,2,414,1
1.1244317007,0.62440735095,0.131924074633,0.156757997118,0.438,0.45,0,0,2,415,1
0.300830918253,0.173543880686,0.202511605123,1.1704651614,0.434,0.45,3,3,2,416,1
0.23628761518,1.1202581572,0.128456250497,0.164026668521,0.442,0.45,1,1,2,417,1
1.17363530978,0.257869107512,0.205201242426,0.153484423216,0.474,0.45,0,0,1,418,1
0.446483815142,1.00837692475,0.191000690082,0.122613886759,0.414,0.45,1,1,2,419,1
0.166330231091,1.01033604498,0.276726862736,0.0938741821197,0.566,0.45,2,1,-1,420,1
0.307324798344,0.257317846229,0.150104419294,0.175494824444,0.7,0.45,1,-1,0,422,1
0.484202115831,1.06892257732,0.443738344081,0.0938325727619,0.226,0.45,0,1,-1,422,1
0.229810239361,0.0619998640943,0.0395752368831,1.25241831352,0.395,0.45,3,3,2,423,1
0.31841831892,0.141615977089,1.02466565127,0.087564298801,0.442,0.45,2,2,2,424,1
1.24468871211,0.121379870427,0.0598339665632,0.101371826961,0.407,0.45,0,0,2,425,1
0.355291312838,0.0985136829136,1.13583984001,0.0996358026486,0.371,0.45,2,2,2,426,1
0.294027061824,0.221347577328,0.238310020249,1.15069331563,0.386,0.45,3,3,2,427,1
1.11218617051,0.219345096852,0.171956496518,0.17468160768,0.479,0.45,0,0,1,428,1
0.422083141527,1.06012833424,0.185650508413,0.10749428942,0.418,0.45,1,1,2,429,1
0.145925239787,0.523287888005,1.08291321892,-0.00867996042404,0.444,0.45,2,2,2,430,1
1.04610461404,0.342497224151,0.062989848746,0.10451767275,0.425,0.45,1,0,-1,431,1
0.314231121063,0.1024347349,0.0325915576533,1.0829969217,0.501,0.45,3,3,1,432,1
0.16591137535,1.00012155517,0.0560730347604,0.0286852926232,0.436,0.45,1,1,2,433,1
1.04443810842,0.10212665222,0.0603371930039,0.0182446379292,0.616,0.45,0,0,1,434,2
0.313725791889,0.145568562024,0.58311971702,1.02032535099,0.609,0.45,3,3,1,435,2
0.237518552489,1.04212936149,0.235885986917,0.114556348063,0.563,0.45,1,1,1,436,2
0.251872159124,0.154059294322,1.11095805814,0.10869291379,0.449,0.45,2,2,2,437,2
0.135642440788,1.03146473019,0.0932564626186,0.0859163002727,0.67,0.45,1,1,1,438,2
0.243510951477,0.295272880445,0.304660917193,1.04640307023,0.519,0.45,3,3,1,439,2
0.182415810915,0.19831569359,1.13408551479,0.102504815349,0.563,0.45,2,2,1,440,2
0.215587759934,0.145875307823,0.199255494906,1.00995956511,0.505,0.45,3,3,1,441,2
1.40182932357,0.195551961902,0.100431013019,0.0882350040921,0.393,0.45,0,0,2,442,2
0.319045238848,1.02715791214,0.196065932957,0.120364501676,0.37,0.45,2,1,-1,443,2
1.19496044483,0.127950378052,0.116639827798,0.129888336078,0.395,0.45,0,0,2,444,2
0.692807282923,1.02350556096,0.112433510234,0.128248162789,0.529,0.45,1,1,1,445,2
1.18265206768,0.153485591648,0.0992098239036,0.140295405122,0.58,0.45,0,0,1,446,2
0.270685471407,0.143571753898,1.08713788726,0.0737575584015,0.498,0.45,2,2,1,447,2
0.255793907938,0.117987320603,0.23849382236,1.08322824758,0.481,0.45,3,3,1,448,2
0.161660113007,1.08105178491,0.0990143415987,0.104138106605,0.445,0.45,1,1,2,449,2
0.121377529463,0.082376385166,1.13849341997,0.0631050258524,0.436,0.45,2,2,2,450,2
0.201715849803,1.10591389011,0.0789736326536,0.132647629207,0.466,0.45,1,1,1,451,2
0.150757570909,0.155277302479,0.133015344979,1.07661290296,0.391,0.45,3,3,2,452,2
1.25300196405,0.270428768507,0.089451828797,0.101835232674,0.395,0.45,0,0,2,453,2
0.126935278208,1.03579056504,0.0936687370323,0.0703445729057,0.384,0.45,1,1,2,454,2
1.01979899265,0.227756832372,0.173226060422,0.105366077652,0.459,0.45,0,0,1,455,2
0.257188010346,0.166757174929,0.21409066924,1.19160453233,0.463,0.45,3,3,1,456,2
0.221780751042,0.323495501686,1.02323846462,0.120464247356,0.48,0.45,2,2,1,457,2
1.2355232923,0.185166622061,0.127882450031,0.175424484785,0.439,0.45,0,0,2,458,2
0.416682876761,0.0910096916353,0.760305392649,1.06314869144,0.441,0.45,3,3,2,459,2
0.204737519341,0.117940535942,1.03161673311,0.152306845633,0.351,0.45,2,2,2,460,2
0.244654429776,1.03712423358,0.116162954487,0.166200489048,0.32,0.45,1,1,2,461,2
0.31332709684,0.160116431635,0.23380122109,1.0163431721,0.435,0.45,2,3,-1,462,2
0.369147953169,0.139182129895,0.108382005,1.11692525189,0.468,0.45,3,3,1,463,2
0.210625745166,1.06442668564,0.0840086198212,0.101557985094,0.366,0.45,1,1,2,464,2
0.187274919735,0.102464791665,0.497296401795,1.04287699205,0.38,0.45,3,3,2,465,2
1.10455974234,0.491523665746,0.0760913316689,0.0758505800699,0.406,0.45,0,0,2,466,2
0.52281666847,1.05501297949,0.0644717060474,0.165670998032,0.45,0.45,1,1,1,467,2
1.31999493481,0.200935887335,0.0434062763997,0.0700835784251,0.529,0.45,0,0,1,468,2
0.256176466972,0.206765606621,1.17134006894,0.0627939290148,0.48,0.45,2,2,1,469,2
1.0651080903,0.219465981802,0.115865369813,0.133332145049,0.494,0.45,0,0,1,470,2
0.268266669787,0.172557728982,0.239209166611,1.04074046067,0.492,0.45,3,3,1,471,2
0.216339358456,0.156369476776,1.06250452449,-0.0133583671377,0.465,0.45,2,2,1,472,2
0.3030671954,1.13153977409,0.0982682143133,0.147236746707,0.464,0.45,1,1,1,473,2
0.289346366335,0.122362128908,0.27646592591,1.10733090319,0.511,0.45,2,3,-1,474,2
0.175843662803,0.0807257765043,0.163692956766,1.06539762631,0.494,0.45,3,3,1,475,2
0.113972701783,1.10058212461,0.0891403942788,-0.00781090671756,0.446,0.45,1,1,2,476,2
0.0908955661429,0.115695723228,0.139912167472,1.15282704608,0.478,0.45,3,3,1,477,2
1.16671314013,0.178977342987,0.0524295909795,-1.11747554081e-05,0.443,0.45,0,0,2,478,2
0.266364370699,0.175242925381,1.10597966283,0.0353321607375,0.518,0.45,2,2,1,479,2
1.24026159431,0.121678800426,0.0390837334133,0.0246491394606,0.493,0.45,0,0,1,480,2
0.159656969473,0.140827431165,0.175693758259,0.123488577888,0.7,0.45,1,-1,0,482,2
0.149506833077,1.02097510655,0.290523281043,0.10221062365,0.0560000000003,0.45,0,1,-1,482,2
0.241890118281,0.220699763806,1.31653888689,0.104707141031,0.302,0.45,2,2,2,483,2
0.298044686532,0.142920695947,0.124892871099,1.2161403019,0.353,0.45,3,3,2,484,2
1.11518719664,0.213978978353,0.156277512773,0.0737956888117,0.38,0.45,1,0,-1,485,2
0.169799720903,0.174894593101,0.240055121741,1.06422034237,0.446,0.45,3,3,2,486,2
0.416000557502,0.170234744736,1.06037501471,0.0539710347255,0.44,0.45,2,2,2,487,2
0.208144534241,1.08107185519,0.113620781603,0.121227587399,0.412,0.45,1,1,2,488,2
1.25654397599,0.233120087818,0.297048994236,0.155952340402,0.399,0.45,0,0,2,489,2
0.26025095294,1.01611446684,0.277016630907,0.167334358858,0.348,0.45,1,1,2,490,2
0.258529291914,0.122355432667,1.08208366434,0.0953299726887,0.328,0.45,2,2,2,491,2
1.01222330939,0.22086505395,0.175933225331,0.220188066591,0.594,0.45,0,0,1,492,2
0.245987617721,0.148898418981,0.201368423633,1.07560184774,0.48,0.45,3,3,1,493,2
0.305760693248,1.00330498312,0.137253095483,0.117178888377,0.456,0.45,0,1,-1,494,2
0.10870917198,1.02845428901,0.182404474717,0.139334460076,0.413,0.45,2,1,-1,495,2
0.309940854635,1.02066300003,0.108530110766,0.17106833681,0.499,0.45,1,1,1,496,2
0.16210164395,0.143173556786,0.203830282981,1.05864315677,0.449,0.45,3,3,2,497,2
0.408531128883,1.07363133456,0.0681874496735,0.124865618948,0.479,0.45,1,1,1,498,2
0.0268215474068,0.0983361934467,1.1574027039,0.0807413139418,0.486,0.45,2,2,1,499,2
0.131837152758,0.0770908275527,0.159949705572,1.12465171507,0.48,0.45,3,3,1,500,2
0.114829394945,0.57351865736,1.00918055254,0.0733813738038,0.574,0.45,2,2,1,501,2
1.18917739495,0.1060677576,0.0482231277888,0.0880708357616,0.454,0.45,0,0,1,502,2
0.24232028216,0.0665031817179,0.0986771466752,1.15725024099,0.481,0.45,3,3,1,503,2
1.057325268,0.142350947539,0.116067944981,0.153008627839,0.613,0.45,0,0,1,504,2
0.22657014291,1.05221574511,0.160540496301,0.166851470969,0.513,0.45,1,1,1,505,2
1.09691148898,0.164143417273,0.132419834111,0.146366553633,0.619,0.45,0,0,1,506,2
0.176182561633,0.10376465381,0.171393376481,1.07495525994,0.543,0.45,3,3,1,507,2
0.137609370274,1.17346552404,0.113097868068,0.101630737545,0.532,0.45,1,1,1,508,2
0.132833103526,0.116457131159,1.04320536642,0.117275922673,0.452,0.45,2,2,1,509,2
0.154763826922,1.03280790117,0.023474702226,0.105517130422,0.522,0.45,1,1,1,510,2
0.170896749456,0.119408359737,0.0821375201265,1.01436055997,0.484,0.45,3,3,1,511,2
0.155921930228,0.634144845101,1.11167324621,0.0998849192481,0.584,0.45,2,2,1,512,2
0.203051699088,0.177499482481,0.160435121885,1.09469971184,0.544,0.45,3,3,1,513,2
1.33524270641,0.308682232849,0.150257944538,0.170683741747,0.466,0.45,0,0,1,514,2
0.106817323217,1.06901937035,0.107208128108,0.17245519118,0.499,0.45,1,1,1,515,2
0.543079652038,0.238318823376,0.148182570718,0.169365538272,0.7,0.45,0,-1,0,517,2
1.1046418808,0.228361377505,0.147155939204,0.172098842312,0.0180000000003,0.45,2,0,-1,517,2
1.08077101402,0.0841257783473,0.0353264845319,0.152985619977,0.468,0.45,0,0,1,518,2
0.301337445424,1.03029618963,0.0314544815471,0.0964443146656,0.543,0.45,1,1,1,519,2
0.264186149031,0.0884746357727,0.0282315604482,1.01776066405,0.5,0.45,3,3,1,520,2
0.288353927731,0.193507031401,1.0683924036,0.0507209499627,0.485,0.45,2,2,1,521,2
0.330452848922,1.01458157294,0.10362007274,0.119330239663,0.446,0.45,1,1,2,522,2
0.10869902087,0.115866204085,1.08940648877,0.0740986343059,0.47,0.45,2,2,1,523,2
0.348979167279,0.156878749796,0.311452337358,1.06247773282,0.428,0.45,3,3,2,524,2
0.147386488275,1.08021069328,0.143993091707,0.143191675965,0.396,0.45,1,1,2,525,2
1.0918108435,0.180004761466,0.183092505194,0.176739534447,0.37,0.45,0,0,2,526,2
0.265774319788,0.145926017482,1.10094982422,0.1581495688,0.377,0.45,2,2,2,527,2
1.06946947752,0.12510650454,0.112719997633,0.171982387197,0.389,0.45,0,0,2,528,2
0.312162512853,0.146549734954,1.12240893213,0.168278014681,0.377,0.45,3,2,-1,529,2
1.17387019468,0.285365418125,0.0881444682367,0.101447699792,0.501,0.45,0,0,1,530,2
0.217533194835,1.06669899643,0.130713286341,0.14651672172,0.421,0.45,2,1,-1,531,2
0.196138144991,1.02392382461,0.0394314946623,0.0932746853223,0.532,0.45,1,1,1,532,2
0.330834082937,0.0577216072509,0.298721248854,1.20247206836,0.528,0.45,3,3,1,533,2
0.228654929275,0.0856479076016,1.00608955787,0.153589918757,0.521,0.45,2,2,1,534,2
0.267671856412,0.160555235356,0.173107377936,1.0279411071,0.482,0.45,3,3,1,535,2
0.155632404733,1.10730767299,0.0852438909862,0.141981925476,0.403,0.45,1,1,2,536,2
1.2805387983,0.218289546268,0.158542544371,0.182852557894,0.355,0.45,0,0,2,537,2
0.322212270702,0.156053291297,0.213566044237,1.09955544346,0.378,0.45,3,3,2,538,2
1.34487345998,0.158030814056,0.136075181296,0.208547880141,0.379,0.45,0,0,2,539,2
0.346053591287,1.25780828565,0.163634089572,0.211196120065,0.43,0.45,1,1,2,540,2
0.207035334358,0.124272255917,1.1958523493,0.18990981235,0.414,0.45,2,2,2,541,2
1.23130556735,0.132418850019,0.0792812294573,0.185838623505,0.365,0.45,0,0,2,542,2
0.243976771518,0.139220553507,1.0247091468,0.184644150783,0.363,0.45,2,2,2,543,2
0.293918154172,1.04498516192,0.111869922313,0.186365493936,0.444,0.45,1,1,2,544,2
0.145643932034,0.127046295889,0.141378434443,1.08686712266,0.449,0.45,3,3,2,545,2
0.164102387364,1.13747477141,0.0550146139549,0.158307866113,0.484,0.45,1,1,1,546,2
0.174785644438,0.231061097771,1.09723459386,0.189891652151,0.454,0.45,2,2,1,547,2
0.284499650072,0.183600582766,0.423214593598,1.08536974004,0.428,0.45,3,3,2,548,2
1.13083267461,0.204671036292,0.100825267377,0.0953475137358,0.283,0.45,0,0,2,549,2
0.2752260411,1.21036013885,0.143429158119,0.135663950891,0.283,0.45,1,1,2,550,2
1.00197751356,0.132444140604,0.232139497548,0.158482455006,0.414,0.45,0,0,2,551,2
0.325324142178,0.114900865795,1.02468628557,0.4222983869,0.356,0.45,3,2,-1,552,2
0.271188847218,0.171427498692,1.1023891029,0.0990887325953,0.499,0.45,2,2,1,553,2
1.33556711259,0.278307544691,0.161055436026,0.235385418696,0.413,0.45,0,0,2,554,2
0.313377460578,0.167230968086,0.19540071418,1.06997671921,0.444,0.45,3,3,2,555,2
0.179437130436,1.10176193947,0.0669924644064,0.162081772613,0.439,0.45,2,1,-1,556,2
0.281728408188,1.20590490953,0.0882617081615,0.223538529691,0.533,0.45,1,1,1,557,2
0.164619441566,0.158029615681,0.14613949602,1.21277076813,0.393,0.45,3,3,2,558,2
0.163226390315,1.19414294921,0.279422391172,0.233589634453,0.407,0.45,1,1,2,559,2
0.102821952367,0.56843111757,0.817488328789,0.0779348226923,0.7,0.45,2,-1,0,561,2
0.109104360005,0.0985731157023,1.07313692089,0.0849784939134,0.216,0.45,0,2,-1,561,2
0.101471205871,0.14019194335,1.10572266945,0.110377582666,0.438,0.45,2,2,2,562,2
0.228720581105,0.133444951982,0.0560083920903,1.09930534383,0.382,0.45,3,3,2,563,2
1.11219578744,0.697398655175,0.0530022007438,0.126540225476,0.32,0.45,0,0,2,564,2
0.191167952433,1.25283377744,0.100265984953,0.142058661859,0.364,0.45,1,1,2,565,2
1.07103397619,0.131329113827,0.0490213186435,0.159304090176,0.425,0.45,0,0,2,566,2
0.205905777297,1.15301584583,0.0423756141799,0.123588250251,0.354,0.45,1,1,2,567,2
0.0897912368358,0.110710865644,0.0351034109684,1.0081646378,0.354,0.45,3,3,2,568,2
0.190471373189,0.163667832335,1.13149296051,0.15936186575,0.392,0.45,2,2,2,569,2
0.298275834519,1.12367156191,0.16958972508,0.231047109123,0.328,0.45,1,1,2,570,2
0.206722403439,0.111706188368,0.285073269031,1.24511244994,0.422,0.45,2,3,-1,571,2
0.13701035337,0.0603631739752,1.0121752047,0.0505398898878,0.46,0.45,3,2,-1,572,2
0.0657853340101,1.21192289029,0.118357592404,0.0737245422363,0.493,0.45,1,1,1,573,2
1.27724593519,0.109843537233,0.0380777065927,0.0699723053243,0.378,0.45,0,0,2,574,2
0.054436180119,0.107826360396,1.02701669603,0.116725824903,0.368,0.45,2,2,2,575,2
1.40619297873,0.190126111687,0.114996612209,0.1231891141,0.382,0.45,0,0,2,576,2
0.321774377013,0.240648988352,0.295660405041,1.2284718085,0.443,0.45,3,3,2,577,2
1.0364205243,0.148270776339,0.144260246453,0.0964578228513,0.444,0.45,0,0,2,578,2
0.271169719209,1.00585277706,0.129405358382,0.116282552277,0.437,0.45,1,1,2,579,2
0.242321861512,0.23541253362,0.132539858399,1.17039000257,0.34,0.45,3,3,2,580,2
0.223892593189,0.166482622618,1.09222497681,0.053207195054,0.392,0.45,2,2,2,581,2
0.185061848926,0.14389105373,0.420879243352,1.32870519996,0.543,0.45,3,3,1,582,2
0.153203106659,1.08559005181,0.137430582087,0.188126502991,0.387,0.45,1,1,2,583,2
0.21670750797,1.04122466749,0.186994997375,0.206769416846,0.441,0.45,2,1,-1,584,2
1.29405278286,0.233437790671,0.222916291015,0.267952031331,0.504,0.45,0,0,1,585,2
0.226180475533,0.116130138972,1.0066422303,0.163441897141,0.349,0.45,2,2,2,586,2
1.13472702393,0.199428972305,0.22733344692,0.27986049943,0.35,0.45,1,0,-1,587,2
1.13658514776,0.186973015499,0.200602464593,0.200125729787,0.368,0.45,0,0,2,588,2
0.188786508225,0.158100240408,1.12509567708,0.159621754653,0.3,0.45,3,2,-1,589,2
0.521438691393,1.01995286152,0.0389804921669,0.0325849722582,0.424,0.45,0,1,-1,590,2
0.18555551133,0.0995414834122,1.13434159419,0.104852789603,0.463,0.45,2,2,1,591,2
1.14854779446,0.0596171106054,0.0724735305027,0.232670785915,0.497,0.45,1,0,-1,592,2
0.0444705629858,0.0468928004055,0.0286350715767,1.31070173421,0.633,0.45,3,3,1,593,2
0.0985465794036,1.26825722833,0.0584909399805,0.142620300086,0.475,0.45,2,1,-1,594,2
0.217720883503,0.0412912589903,0.0550323014109,1.0782393904,0.633,0.45,3,3,1,595,2
0.426399895416,1.08675810694,0.0952434629377,0.108645273317,0.562,0.45,1,1,1,596,2
1.20850909775,0.123976822261,0.130445377792,0.104514826427,0.391,0.45,0,0,2,597,2
0.248684587631,0.0815445406941,0.139870012293,1.05894185104,0.456,0.45,3,3,1,598,2
1.35515947141,0.0800217715221,0.10215598202,0.308743937612,0.449,0.45,0,0,2,599,2
0.227846802667,1.04399358759,0.139223862741,0.31756698671,0.466,0.45,1,1,1,600,2
0.15150235226,0.107193995741,1.0930811809,0.249442024986,0.423,0.45,2,2,2,601,2
1.10549057443,0.104841263145,0.444147949855,0.223210034761,0.398,0.45,0,0,2,602,2
0.152189465167,0.108342977844,1.01711593931,0.129113697431,0.465,0.45,1,2,-1,603,2
0.0688405712659,0.0732018653703,0.738095165185,1.03731004841,0.457,0.45,3,3,1,604,2
0.228101390594,0.291983693409,1.02903627882,0.0783281000852,0.463,0.45,2,2,1,605,2
0.161076840836,0.109890837669,0.0842469739688,1.26390437845,0.657,0.45,3,3,1,606,2
0.139188354609,1.04972743394,0.0798863968033,0.141257293794,0.483,0.45,1,1,1,607,2
0.164279088181,0.172464972626,1.13453460371,0.2475977948,0.492,0.45,2,2,1,608,2
1.03227793896,0.0600674549846,0.0686577653038,0.0927202164644,0.493,0.45,1,0,-1,609,2
1.20214757007,0.124086501442,0.133338743865,0.132389399139,0.544,0.45,0,0,1,610,2
0.121444803421,1.105724706,0.0795554372495,0.0943371558855,0.429,0.45,2,1,-1,611,2
1.34956655526,0.0990654223358,0.0948062280559,0.115864855114,0.465,0.45,0,0,1,612,2
0.193207311604,0.0534060106724,0.935358876252,1.0392118571,0.438,0.45,3,3,2,613,2
1.04040738095,0.0545360001037,0.0399608193262,-0.0390619182765,0.425,0.45,0,0,2,614,2
0.40268235461,0.157743374736,0.111278050558,1.04809254258,0.439,0.45,3,3,2,615,2
0.452099181575,1.13508419589,0.0277766755448,0.0189513075005,0.443,0.45,1,1,2,616,2
0.326118870436,0.205732162373,1.0311305669,0.052081881364,0.608,0.45,2,2,1,617,2
0.252451022847,1.10174149568,0.0314453994282,0.0144808272944,0.556,0.45,1,1,1,618,2
0.308397655408,0.208863342827,0.0379331980154,1.08805184128,0.559,0.45,3,3,1,619,2
0.180601602857,0.199268888437,1.0304428186,0.125210155533,0.566,0.45,2,2,1,620,2
1.04591974995,0.251379898748,0.140835889565,0.111080395472,0.525,0.45,0,0,1,621,2
0.271925733296,0.241895586162,1.0309010101,0.187800188875,0.419,0.45,2,2,2,622,2
0.404545802947,0.147740343457,0.24112525864,1.05579586438,0.373,0.45,3,3,2,623,2
1.15645581022,0.172532204657,0.155161744969,0.153303286196,0.364,0.45,0,0,2,624,2
0.243681915096,1.10293614652,0.163093113362,0.112929453144,0.331,0.45,1,1,2,625,2
1.03675236434,0.141973910608,0.134219793545,0.0875623647243,0.451,0.45,0,0,1,626,2
0.181135151051,1.04835618622,0.104181882428,0.0654821419764,0.354,0.45,2,1,-1,627,2
0.159784765357,1.01296474715,0.0792795291058,0.0658890604491,0.484,0.45,1,1,1,628,2
0.181849883503,0.148685950028,0.22377329293,1.00410435844,0.445,0.45,3,3,2,629,2
1.08084924518,0.186860813165,0.136054460553,0.0935454018529,0.452,0.45,1,0,-1,630,2
0.112711127167,1.0798604419,0.104810499744,0.0587426979785,0.537,0.45,2,1,-1,631,2
0.267779092807,0.171196862667,0.0861879616239,1.10560610116,0.626,0.45,3,3,1,632,2
0.14995021761,0.121219068687,0.955742800438,0.0244232053672,0.7,0.45,2,-1,0,634,2
0.151631180913,0.114669299338,1.04491528511,0.0125166044513,0.0120000000004,0.45,0,2,-1,634,2
0.288903266404,0.0726690360573,0.0936329967714,1.13756701698,0.398,0.45,3,3,2,635,2
1.22021734642,0.103134601605,0.0534263436056,0.0989988684583,0.545,0.45,0,0,1,636,2
0.246458027666,1.23342479847,0.0928456425424,0.0885783404795,0.46,0.45,1,1,1,637,2
1.06053633494,0.118152862799,0.0385343899825,0.107317693605,0.437,0.45,0,0,2,638,2
0.171909134282,0.0749036834004,1.10948659989,0.0852062057297,0.417,0.45,2,2,2,639,2
0.174988879996,1.09269151527,0.0572669626714,0.100157974919,0.499,0.45,1,1,1,640,2
0.195850396059,0.156245812866,0.0664093828462,1.02918573243,0.501,0.45,3,3,1,641,2
0.24156991292,0.174923439184,1.004923643,0.0617696900867,0.564,0.45,2,2,1,642,2
0.323076071623,0.14670221253,0.329492010525,1.03697932823,0.577,0.45,3,3,1,643,2
0.220537606878,1.02616057046,0.047282402634,0.0516185776635,0.582,0.45,1,1,1,644,2
1.17292698282,0.195844102487,0.0955565021925,0.0821825615969,0.58,0.45,0,0,1,645,2
0.268062113315,0.120628986185,0.124355798348,1.00387174168,0.53,0.45,3,3,1,646,2
1.04614789419,0.167913971508,0.0285546907152,0.0409012624176,0.524,0.45,0,0,1,647,2
0.201197191129,1.05661597595,0.127957937884,0.0402924093842,0.518,0.45,1,1,1,648,2
0.163732750079,0.0803500405918,1.07126231097,0.0255058767351,0.444,0.45,2,2,2,649,2
1.01763359946,0.160477692565,0.052022207432,0.108728066466,0.437,0.45,0,0,2,650,2
0.396967035399,0.21315361092,0.121325847279,0.118028387483,0.7,0.45,0,-1,0,652,3
1.11776785394,0.251118172276,0.0868523824959,0.0913601342269,0.0820000000004,0.45,3,0,-1,652,3
0.118176788286,0.117710874778,1.0267171059,0.061354755965,0.431,0.45,1,2,-1,653,3
0.135603731956,0.0761401657847,1.04709887354,0.0339369500109,0.342,0.45,2,2,2,654,3
0.354732770548,0.0852835620414,0.178785819403,1.2129951136,0.346,0.45,3,3,2,655,3
0.255879326855,1.11579642887,0.160341572137,0.104578005978,0.363,0.45,2,1,-1,656,3
0.180737586148,1.02472291928,0.124795136316,0.0651808199757,0.392,0.45,1,1,2,657,3
1.32284042467,0.202249020379,0.100255039176,0.0730816348746,0.349,0.45,0,0,2,658,3
0.304789858157,1.073881994,0.0953324746118,0.0498405256276,0.326,0.45,1,1,2,659,3
0.334977348453,0.146265570486,0.125417780104,1.01424846085,0.334,0.45,3,3,2,660,3
1.33422135362,0.182766025199,0.09291548636,0.0952531812274,0.365,0.45,0,0,2,661,3
0.249889937069,0.118964998876,1.12600767363,0.0322013007992,0.419,0.45,2,2,2,662,3
1.02588106724,0.0650260591355,0.0406785325786,0.0350538889362,0.534,0.45,0,0,1,663,3
0.13102224865,0.0853064647633,1.17867012841,-0.0464787477413,0.446,0.45,2,2,2,664,3
0.21701850227,0.0554090605561,0.145533016463,1.16369340177,0.415,0.45,3,3,2,665,3
0.13626411887,1.1724636826,0.0436203050405,0.0162438672958,0.472,0.45,1,1,1,666,3
0.0502893614337,0.0234626607372,1.05988137249,0.0186187946826,0.461,0.45,2,2,1,667,3
1.17110119424,0.0261091383314,0.0312646665925,0.0334881371601,0.401,0.45,1,0,-1,668,3
0.0397432202932,0.0390760463173,0.0298220217479,1.05318281673,0.427,0.45,3,3,2,669,3
1.05128904437,0.0375660493619,0.048361273524,0.00491875362205,0.394,0.45,0,0,2,670,3
0.0888682209171,0.0432199132564,0.86223250154,1.01155568156,0.461,0.45,3,3,1,671,3
0.0979295444851,0.0952229201063,1.00635266368,0.022906997711,0.505,0.45,2,2,1,672,3
1.03509412177,0.0626043731868,0.114277639336,0.0759073122981,0.372,0.45,0,0,2,673,3
0.344769769669,1.16223663738,0.0691006686849,-0.0385518241267,0.366,0.45,1,1,2,674,3
1.06659593861,0.135910338352,0.10370039674,-0.00352233704969,0.437,0.45,0,0,2,675,3
0.187995224391,0.0658262285519,1.10071638965,-0.0572214082013,0.404,0.45,2,2,2,676,3
0.393602950916,0.106253797259,0.241597009053,1.03704686653,0.375,0.45,3,3,2,677,3
0.226400826451,1.0918533555,0.125903252633,0.063027893485,0.401,0.45,1,1,2,678,3
0.283577275902,0.126243728772,0.243787769809,1.06273242642,0.464,0.45,3,3,1,679,3
0.291753699771,0.085853895361,1.03731596014,-0.0673012352835,0.432,0.45,2,2,2,680,3
0.451611888725,1.04031865453,0.129109382628,-0.0121534795446,0.413,0.45,1,1,2,681,3
0.0970746721785,0.157014151673,1.09774147403,-0.0891252683486,0.607,0.45,2,2,1,682,3
1.10638539576,0.0540937807502,0.029973809224,0.0514315185472,0.429,0.45,0,0,2,683,3
0.12539574364,0.0441619643215,0.439572832213,1.02342294729,0.428,0.45,3,3,2,684,3
1.17744672066,0.0752299920583,0.0465911354152,0.0681191361583,0.441,0.45,0,0,2,685,3
1.132019437,0.176432628574,0.10784943659,0.0735390036032,0.441,0.45,1,0,-1,686,3
1.16346166816,0.126242934355,0.0765116987892,0.0293984151407,0.518,0.45,0,0,1,687,3
0.117602718996,1.06988046365,0.11496885918,-0.0292961060059,0.517,0.45,1,1,1,688,3
0.153055474775,0.095247402926,1.09174319325,-0.0488000127423,0.442,0.45,2,2,2,689,3
0.443022434088,0.145388289265,0.415804086252,1.00644396523,0.501,0.45,3,3,1,690,3
0.120111785783,0.104295698904,1.17182418507,-0.0669904333634,0.464,0.45,2,2,1,691,3
0.114583456509,1.0710615439,0.0484457232364,0.02711899298,0.401,0.45,1,1,2,692,3
0.251847621551,0.0904835343624,0.209084988432,1.06233414444,0.494,0.45,3,3,1,693,3
0.35376730915,1.05876966704,0.0507330932702,-0.0738230037427,0.477,0.45,1,1,1,694,3
1.13726040062,0.0653886189784,0.0511886672787,0.00289312697521,0.398,0.45,0,0,2,695,3
0.288430379544,0.088663097186,0.217346137367,1.09887798911,0.42,0.45,3,3,2,696,3
0.348219902906,1.0050877424,0.110628630956,0.00427549757472,0.392,0.45,0,1,-1,697,3
0.127618896316,0.0848457871183,1.02857289972,-0.0313887390502,0.371,0.45,2,2,2,698,3
1.04161738091,0.111528622814,0.0880191847955,0.0269120195261,0.384,0.45,0,0,2,699,3
0.203029026545,0.086761585847,1.04774395006,-0.0691995637644,0.344,0.45,3,2,-1,700,3
0.253203181689,0.151959777975,1.02978801676,-0.00501875864929,0.656,0.45,2,2,1,701,3
0.375780211408,1.07516530037,0.140392947518,-0.0561559061777,0.621,0.45,1,1,1,702,3
0.321940870111,0.165985598575,0.270409214024,1.16030020933,0.466,0.45,3,3,1,703,3
0.196824338891,1.00426255109,0.134358637781,0.00378650189848,0.48,0.45,1,1,1,704,3
0.0634215647813,0.078053065374,1.06496886355,-0.023090519008,0.447,0.45,2,2,2,705,3
1.04638913131,0.1450361474,0.0790969528201,-0.0199886178305,0.399,0.45,0,0,2,706,3
1.17430418403,0.105293051357,0.123038226573,-0.0291370454257,0.398,0.45,1,0,-1,707,3
1.08398644503,0.0737032663885,0.0622986253896,-0.0183227391183,0.515,0.45,0,0,1,708,3
0.072513183643,0.0558864414511,1.13378858039,0.00538920865789,0.48,0.45,2,2,1,709,3
0.33987359611,0.0710208428339,0.288909856035,1.08487600552,0.474,0.45,3,3,1,710,3
1.09409988537,0.399746962218,0.089582447188,0.00191018289454,0.559,0.45,0,0,1,711,3
0.270312036649,0.0702742176713,0.079560616628,1.05739779456,0.542,0.45,3,3,1,712,3
0.257141133217,1.08939792768,0.0295575773314,-0.00866006124108,0.635,0.45,1,1,1,713,3
0.0758601863534,0.0693881340281,1.01842658627,-0.0682136151515,0.554,0.45,2,2,1,714,3
0.172535151805,1.00018791263,0.0394071134915,0.00181633451594,0.55,0.45,1,1,1,715,3
0.0489739635546,0.114066459937,0.147443320678,1.13688819183,0.492,0.45,3,3,1,716,3
0.148561498646,0.783902342385,1.00938784727,-0.0324058000956,0.554,0.45,2,2,1,717,3
1.02964855884,0.0406824689069,0.0392962193334,0.0440793411528,0.46,0.45,0,0,1,718,3
0.198181162486,1.07355750824,0.0478537008855,0.0382454937834,0.495,0.45,1,1,1,719,3
1.12919840078,0.181839351141,0.113017233861,0.0999971770825,0.557,0.45,0,0,1,720,3
0.242026339622,0.149609115972,1.02057600866,0.00492136969187,0.535,0.45,2,2,1,721,3
0.202635429622,0.0822070904441,0.146236281342,1.01207867278,0.5,0.45,3,3,1,722,3
1.16264039065,0.130365094548,0.0229893122692,0.00890259927165,0.489,0.45,0,0,1,723,3
0.185580735845,1.01399755749,0.0519021843095,0.0303261243645,0.382,0.45,1,1,2,724,3
0.159368517289,0.114260564532,0.113689208094,1.17438853244,0.37,0.45,3,3,2,725,3
0.105584454549,1.05801974746,0.0476600285109,-0.00329887952181,0.331,0.45,2,1,-1,726,3
0.0456054762433,0.0556210571297,0.0548511351077,1.06590422342,0.614,0.45,3,3,1,727,3
0.0411638802675,1.09588782649,0.0472857707393,-0.0653943405196,0.562,0.45,1,1,1,728,3
0.058841218587,0.0655868824874,1.03422319679,-0.0810726288213,0.481,0.45,2,2,1,729,3
1.12038670112,0.115456122944,0.0860638543452,0.0479002702982,0.423,0.45,0,0,2,730,3
0.179770796398,0.142724425667,1.05368428503,-0.00319730597256,0.365,0.45,2,2,2,731,3
1.0893613074,0.0903932605723,0.099121050109,0.0395695800362,0.332,0.45,1,0,-1,732,3
1.14193959995,0.0683568738641,0.0979261899771,0.00296504198488,0.462,0.45,0,0,1,733,3
0.421987274467,0.119193291276,0.81338869495,1.11773138009,0.461,0.45,3,3,1,734,3
1.02263309087,0.108475412182,0.0401485701157,-0.0125553048763,0.411,0.45,0,0,2,735,3
0.300157946621,0.08481814763,0.152283295216,1.08402810008,0.429,0.45,3,3,2,736,3
0.232723879236,1.06791503288,0.117109321843,0.0183051046991,0.359,0.45,1,1,2,737,3
0.133821977702,0.41475817428,1.00329860941,-0.0408231479207,0.516,0.45,2,2,1,738,3
1.0082438562,0.143117683852,0.131199835678,0.0691416089543,0.408,0.45,1,0,-1,739,3
0.123143733707,0.0820530945924,0.130987858292,1.22071667859,0.559,0.45,3,3,1,740,3
0.139599714456,0.0718641462495,1.03474780478,-0.0210745821096,0.553,0.45,2,2,1,741,3
0.132570314164,0.0405301687,0.149826718788,0.241007148233,0.7,0.45,3,-1,0,743,3
0.16113545676,0.0403946632006,0.307946629324,1.01599233173,0.0370000000004,0.45,0,3,-1,743,3
0.143305259729,0.531348766507,1.01314239487,-0.00529789988196,0.622,0.45,2,2,1,744,3
1.05333154189,0.784677561613,0.041590401974,0.0240732314114,0.537,0.45,0,0,1,745,3
0.174099672642,1.1151653683,0.0345128370982,0.0629232625685,0.493,0.45,1,1,1,746,3
1.24043780819,0.0579203566529,0.0433940984247,0.0130356962665,0.511,0.45,0,0,1,747,3
0.126708595463,0.0515848163852,1.10376998289,-0.0686414308387,0.496,0.45,2,2,1,748,3
0.333674542934,0.426180632329,0.0514906397152,-0.0364476470156,0.7,0.45,1,-1,0,750,3
0.21811341205,1.05436259059,0.0515235459234,-0.0382844526753,0.0560000000004,0.45,3,1,-1,750,3
0.108355970821,0.112810112273,1.03705943997,-0.0451804890234,0.538,0.45,2,2,1,751,3
0.211571389144,0.0599670433291,0.131718120037,1.16858742328,0.482,0.45,3,3,1,752,3
0.232721369065,1.03651601843,0.0356438659437,0.0538522096979,0.37,0.45,1,1,2,753,3
1.1377746442,0.15268876656,0.111007540267,0.0494142788914,0.337,0.45,0,0,2,754,3
0.108293813537,0.0835972439805,1.00169708671,0.288855493976,0.363,0.45,3,2,-1,755,3
0.14828747868,1.06706401421,0.0373446281662,0.012577315277,0.394,0.45,0,1,-1,756,3
0.0833998238126,1.09025290986,0.0565315353375,0.00197034908111,0.443,0.45,1,1,2,757,3
0.0596854214512,1.08698313308,0.0339584275588,-0.0223402415425,0.415,0.45,2,1,-1,758,3
1.11965285717,0.0668651549096,0.0346068810208,-0.0278979763409,0.436,0.45,0,0,2,759,3
0.472076925823,0.233295812886,0.176374880666,1.1591406049,0.384,0.45,3,3,2,760,3
0.290484106536,0.0834295814634,1.17356558531,-0.0230152161646,0.447,0.45,2,2,2,761,3
1.33117841701,0.128840828504,0.0745508098719,-0.0543990870513,0.421,0.45,1,0,-1,762,3
0.130092600177,0.117639259077,0.210494265435,-0.0222168845652,0.7,0.45,2,-1,0,764,3
0.114323934227,0.103226838355,1.06450997133,-0.0632325682341,0.0410000000004,0.45,3,2,-1,764,3
0.0664720108089,0.941944145711,0.21467775107,-0.0378132726646,0.7,0.45,1,-1,0,766,3
1.08258267288,0.0667435028641,0.0290365199151,-0.0117189001809,0.523,0.45,0,0,1,766,3
0.0966249404268,0.062713664838,1.01161917464,-0.0766563312423,0.452,0.45,2,2,1,767,3
1.01626839946,0.0727515988242,0.0201211793651,0.00751298919271,0.419,0.45,0,0,2,768,3
0.116358489134,1.06513347823,0.0512604083785,-0.045776212134,0.465,0.45,1,1,1,769,3
0.054165209689,0.0645569943363,1.12420394144,-0.0372935165156,0.468,0.45,3,2,-1,770,3
1.19262910376,0.0471645200789,0.0501048409121,-0.0388060676743,0.495,0.45,0,0,1,771,3
0.559071047081,0.0612869522216,0.199443738348,1.123878689,0.563,0.45,3,3,1,772,3
0.309123970068,1.13819890589,0.0496289360497,-0.072501177541,0.617,0.45,1,1,1,773,3
0.114569313317,0.0532797073313,1.1521090974,-0.0823889435292,0.535,0.45,2,2,1,774,3
0.345205573886,0.12120330567,0.136681319815,1.21032913341,0.507,0.45,3,3,1,775,3
0.0563736706693,0.0542108525146,1.00170486649,-0.0958513498921,0.497,0.45,2,2,1,776,3
0.167572751054,1.11961259637,0.0754096863178,-0.0330202871762,0.63,0.45,1,1,1,777,3
1.07555926745,0.0942145521858,0.164058246814,0.0124715756926,0.443,0.45,0,0,2,778,3
0.0864717145182,0.0908851791192,1.00623984943,-0.132242853856,0.359,0.45,1,2,-1,779,3
0.175515374286,0.0450221949932,0.253238188172,1.09941565919,0.438,0.45,3,3,2,780,3
1.22998316315,0.0384186383559,0.047129903501,-0.00949291935483,0.417,0.45,0,0,2,781,3
0.137741660572,0.0613160628843,1.09776399154,-0.0472916395925,0.389,0.45,2,2,2,782,3
1.00126157633,0.0653731618283,0.0312850819164,0.0677832850465,0.516,0.45,0,0,1,783,3
0.188965362959,1.04014662494,0.0369951850792,-0.00761565566898,0.466,0.45,2,1,-1,784,3
0.36544597924,1.21304978222,0.0367109984535,-0.0275650140499,0.552,0.45,1,1,1,785,3
0.17749698962,0.0468816980162,0.0868515999139,1.11847135117,0.492,0.45,3,3,1,786,3
0.421273592948,1.02618732466,0.0555990396809,0.0986219599995,0.508,0.45,1,1,1,787,3
0.0838251812762,0.73673898145,1.12681425045,-0.0101161779304,0.681,0.45,2,2,1,788,3
0.278895302616,0.220922973974,0.39301840693,1.02789457953,0.603,0.45,3,3,1,789,3
0.112566887649,0.0532394840397,1.01562444816,-0.0676439787637,0.494,0.45,2,2,1,790,3
1.40574265709,0.302746391662,0.137157172459,0.0641753168659,0.442,0.45,0,0,2,791,3
1.31096109949,0.273136899922,0.263272946585,0.0601140063937,0.443,0.45,1,0,-1,792,3
0.169802422573,0.199285975439,0.235606627377,0.0692224443918,0.7,0.45,0,-1,0,794,3
1.01390651207,0.305380913297,0.129364793374,0.0405921649836,0.139,0.45,3,0,-1,794,3
0.214461430441,0.193334950784,1.01299497204,-0.0189150309702,0.535,0.45,0,2,-1,795,3
0.148817848221,0.0641987126353,0.435223419745,1.20789306859,0.495,0.45,3,3,1,796,3
0.154163680607,0.0722533220623,1.02977201999,-0.039776239696,0.396,0.45,2,2,2,797,3
0.115985927891,1.14546387097,0.210275934125,0.0484384082412,0.366,0.45,1,1,2,798,3
0.0644161961072,0.0949673488009,1.07830405885,-0.0517443083062,0.383,0.45,2,2,2,799,3
0.148509967553,0.123303497167,0.198669263554,1.07564741428,0.436,0.45,3,3,2,800,3
0.113605116341,1.05524507848,0.0682968742583,-0.0233529027406,0.391,0.45,1,1,2,801,3
0.225093007501,0.176928544181,0.201673574451,1.16375913324,0.443,0.45,3,3,2,802,3
1.21472428258,0.14741253824,0.0728722393085,-0.0343841105919,0.38,0.45,0,0,2,803,3
0.168192766739,0.237257254705,1.02733343386,-0.0221996532541,0.341,0.45,1,2,-1,804,3
1.0355758068,0.15711234859,0.028228525548,0.0697026916986,0.481,0.45,0,0,1,805,3
0.129961665563,0.0840030772429,1.16570212677,-0.0624226671864,0.446,0.45,2,2,2,806,3
1.17449776505,0.130144279993,0.0400512502588,0.027616758432,0.396,0.45,0,0,2,807,3
0.150091215256,0.113453393706,1.17020025142,-0.121502166821,0.363,0.45,2,2,2,808,3
0.191110114904,1.04107022654,0.0891532858462,0.0228429426251,0.388,0.45,1,1,2,809,3
0.355343685151,0.147489426742,0.191950651682,1.18681404964,0.406,0.45,3,3,2,810,3
0.37302501983,0.135791894976,1.01047139186,0.0104387536181,0.412,0.45,2,2,2,811,3
0.257045180871,0.145068659457,0.25985597705,1.25188587973,0.526,0.45,3,3,1,812,3
0.207417107205,1.08658870241,0.108298999126,-0.0589206819197,0.504,0.45,1,1,1,813,3
0.0951473012393,0.104727965802,1.13704511622,-0.0616006782596,0.496,0.45,2,2,1,814,3
1.32266136871,0.0854265930592,0.0460356935341,-0.0268868340871,0.474,0.45,0,0,1,815,3
0.106536880597,0.0647078452726,1.13844812638,-0.0833785243065,0.494,0.45,1,2,-1,816,3
1.36328956809,0.0531475208031,6.49416431804e-05,-0.0410939665619,0.6,0.45,0,0,1,817,3
0.0620654915369,0.0492525177672,0.46893662326,1.06510114795,0.484,0.45,3,3,1,818,3
1.3202348044,0.071761592986,0.0445652764014,0.097939476007,0.424,0.45,0,0,2,819,3
0.863411661623,1.12164638158,0.0690969643189,0.0376153299822,0.467,0.45,1,1,1,820,3
0.328342072919,0.305761015002,1.12792334068,0.240086179429,0.379,0.45,2,2,2,821,3
0.400215903954,0.22033360099,0.241784745012,1.34468462073,0.363,0.45,3,3,2,822,3
0.299431945895,1.04468437307,0.167530749446,0.123428327815,0.338,0.45,2,1,-1,823,3
0.190378589429,1.29815269576,0.102482712279,0.0485117207717,0.346,0.45,1,1,2,824,3
0.379410615395,0.10783853969,0.165250640712,1.21467590096,0.43,0.45,3,3,2,825,3
1.06730745616,0.271051755871,0.196858208495,0.155815188074,0.389,0.45,0,0,2,826,3
0.284335747176,0.0982409794537,0.753846981309,1.08496766398,0.439,0.45,3,3,2,827,3
0.380880640644,1.13758378675,0.0896668816256,0.109818062997,0.409,0.45,1,1,2,828,3
1.11043126252,0.255011649414,0.134292006621,0.122988736257,0.501,0.45,0,0,1,829,3
0.375344985603,0.176359536492,1.30429679621,0.075285002079,0.443,0.45,2,2,2,830,3
1.06755690955,0.154423061394,0.105210551633,0.139322898288,0.438,0.45,0,0,2,831,3
1.22298860894,0.147126831129,0.175746181259,0.13214695067,0.451,0.45,1,0,-1,832,3
0.334313902593,0.219994321538,0.709353458391,1.23247917313,0.508,0.45,3,3,1,833,3
0.172442644632,0.0928139665424,1.06041788228,0.00239572443217,0.469,0.45,2,2,1,834,3
0.11693585502,1.06236012395,0.0817041667752,0.0660934262404,0.447,0.45,1,1,2,835,3
0.266675941991,0.166374176699,0.199503815555,1.14112950622,0.507,0.45,2,3,-1,836,3
0.323141661788,0.0603071196691,0.100078793193,1.02865806582,0.513,0.45,3,3,1,837,3
0.421335522961,1.09498323537,0.0449947360411,-0.0610134804906,0.563,0.45,1,1,1,838,3
1.53545059305,0.124127761589,0.0274956494669,-0.0545047073183,0.472,0.45,0,0,1,839,3
0.386415655496,0.0871206078209,0.244653877045,1.15810565672,0.395,0.45,3,3,2,840,3
1.32110244355,0.200883832718,0.127138021494,0.00424037693571,0.396,0.45,0,0,2,841,3
0.261228240685,0.0967546305147,1.06110734902,-0.0367641951331,0.352,0.45,2,2,2,842,3
1.18945218992,0.044413134639,0.0739112220986,0.0119325538332,0.322,0.45,0,0,2,843,3
0.209527967772,0.0366528939106,1.06286600307,-0.0804548649773,0.377,0.45,3,2,-1,844,3
0.255238950354,1.0369810222,0.493792379814,-0.0297312982,0.447,0.45,2,1,-1,845,3
0.916766861842,1.17776286034,0.103122214017,0.0838185947864,0.48,0.45,1,1,1,846,3
0.230136450272,0.0760191195683,1.22959052081,0.0567938851302,0.651,0.45,2,2,1,847,3
0.547922343403,0.0659061652995,0.0230580221952,1.06736690752,0.476,0.45,3,3,1,848,3
0.154490852344,1.22960848321,0.147352974641,0.0518866034469,0.446,0.45,1,1,2,849,3
0.541965813726,0.26602791247,0.367029819907,1.11859239481,0.409,0.45,3,3,2,850,3
1.2501703304,0.203590835533,0.205499668916,0.106053075996,0.38,0.45,0,0,2,851,3
1.37858055112,0.199234214343,0.334522767988,0.103035310799,0.355,0.45,1,0,-1,852,3
0.344521873756,0.274758669804,0.271455348811,1.30256984326,0.37,0.45,0,3,-1,853,3
0.117641552553,1.18257654761,0.915787048168,0.0374427864913,0.374,0.45,2,1,-1,854,3
1.01432220804,0.0789781902027,0.185684893206,0.0966640776877,0.372,0.45,0,0,2,855,3
0.0777519045806,0.048589852397,1.00745215321,0.475623140252,0.375,0.45,3,2,-1,856,3
0.135201994696,0.0540347545989,1.23732723376,-0.032322127512,0.39,0.45,2,2,2,857,3
0.310230607842,1.37566616883,0.0872546251011,0.0311424307058,0.393,0.45,1,1,2,858,3
0.23058253275,0.140898933741,0.167093366803,1.19585141723,0.394,0.45,3,3,2,859,3
1.08160910359,0.165755365454,0.119610722682,0.0415357495812,0.335,0.45,1,0,-1,860,3
0.0456487073257,1.45025673937,0.05279850305,-0.00202681280159,0.424,0.45,2,1,-1,861,3
0.178676813233,0.0866354486261,0.570771518306,1.2540701349,0.476,0.45,3,3,1,862,3
1.31286087467,0.154349814337,0.0506701477904,0.0917089876219,0.483,0.45,0,0,1,863,3
0.16448872924,1.01280267615,0.154985844133,0.0508607138262,0.393,0.45,2,1,-1,864,3
0.430138088423,0.0647664388414,0.0403395627149,1.29839796301,0.516,0.45,0,3,-1,865,3
0.0868105417095,1.06987397381,0.0353181725855,0.004370647064,0.53,0.45,1,1,1,866,3
1.11323651179,0.214740176391,0.200474317707,-0.0232335974202,0.689,0.45,0,0,1,867,3
0.137578086536,0.868721366134,1.12657218576,0.0560213076208,0.625,0.45,1,2,-1,868,4
0.113607191747,0.072220589775,1.08570526666,0.0536233510607,0.556,0.45,2,2,1,869,4
1.0720342655,0.133410494102,0.0737920678816,0.105047911008,0.434,0.45,0,0,2,870,4
0.32698781545,0.115218107205,0.204828517598,1.10172602861,0.437,0.45,3,3,2,871,4
0.253754835445,0.119969641583,1.19989785532,0.0736005263711,0.353,0.45,2,2,2,872,4
0.36489345902,0.118007015113,0.886229001341,1.15935181845,0.375,0.45,3,3,2,873,4
1.27979961582,0.132406295072,0.17237796508,0.0877223225852,0.356,0.45,0,0,2,874,4
0.101874253184,0.0878583261047,1.06130960513,0.0268187306746,0.387,0.45,2,2,2,875,4
0.444027758603,1.2059627108,0.124226554675,0.0819775018899,0.492,0.45,1,1,1,876,4
1.09217612479,0.148621780339,0.114347948543,0.052398324835,0.519,0.45,0,0,1,877,4
0.844701976789,1.04799651073,0.150743980598,0.0431907379398,0.487,0.45,1,1,1,878,4
0.249473578545,0.0861658169437,0.712116947774,1.38892500799,0.387,0.45,3,3,2,879,4
1.0759590331,0.123584516338,0.0762252783167,0.0309993467346,0.307,0.45,1,0,-1,880,4
0.100187630505,0.0766197457953,1.05760235177,0.00150731214826,0.358,0.45,2,2,2,881,4
0.169185060601,0.0420645942939,1.27362722692,0.0442117153517,0.359,0.45,3,2,-1,882,4
1.20200212256,0.039363931594,0.035376954578,0.0159706172818,0.396,0.45,0,0,2,883,4
0.185527896607,0.0570423520579,0.0679307108349,1.09282588752,0.387,0.45,3,3,2,884,4
0.134248291303,0.386991226602,1.0557902669,-0.0362974686085,0.377,0.45,2,2,2,885,4
1.22832459961,0.261941694417,0.0584429439866,0.0794796370256,0.434,0.45,0,0,2,886,4
0.105888741198,0.0556190088882,1.02474315997,0.0197313135608,0.369,0.45,2,2,2,887,4
1.39522815049,0.0541633609734,0.0310977641613,0.0812864536315,0.308,0.45,1,0,-1,888,4
1.18518379861,0.0531700575077,0.0268398012496,0.0376497284305,0.38,0.45,0,0,2,889,4
0.0404109121838,1.19348224231,0.0121800742331,-0.00427979776247,0.371,0.45,1,1,2,890,4
0.599671117605,0.277660970973,0.174044696711,1.01881439366,0.334,0.45,3,3,2,891,4
1.04163344091,0.0291527080682,0.027122890069,-0.00457652591829,0.327,0.45,1,0,-1,892,4
0.0392833931917,0.0473927842035,1.00251926398,-0.0192534430645,0.68,0.45,2,2,1,893,4
0.382481888184,0.150903255742,0.18935786381,1.02265536555,0.532,0.45,3,3,1,894,4
1.23342604675,0.0673056940867,0.0390619367426,-0.029215193699,0.374,0.45,0,0,2,895,4
0.350691437607,0.0626233261666,0.254992350232,1.15686143961,0.372,0.45,3,3,2,896,4
0.127246864073,1.18781395114,0.197096198434,0.035600556976,0.627,0.45,2,1,-1,897,4
1.12904952941,0.133089642366,0.238727303223,0.164782626799,0.573,0.45,0,0,1,898,4
0.176390316357,0.0802430674002,1.09692878213,0.0349195834872,0.473,0.45,1,2,-1,899,4
0.450696307305,0.142364464907,0.201718662647,1.24024771255,0.463,0.45,3,3,1,900,4
0.127202688823,1.01546900367,0.202908053804,0.163354163889,0.44,0.45,1,1,2,901,4
1.48005183075,0.109913099813,0.232692292222,0.152705987081,0.379,0.45,0,0,2,902,4
0.321753825671,0.207635407042,1.11154126729,0.178537193268,0.452000000001,0.45,2,2,1,903,4
1.04360798794,0.0764815720968,0.267241261947,0.191220254081,0.445000000001,0.45,1,0,-1,904,4
1.09098144075,0.254562747208,0.240818959011,0.151511846561,0.467000000001,0.45,0,0,1,905,4
0.209904905844,0.188863606486,1.01671909673,0.113865130079,0.347000000001,0.45,3,2,-1,906,4
0.326648622351,0.562566927484,1.01964921163,0.827824033996,0.425000000001,0.45,2,2,2,907,4
1.03636364571,0.0764307491991,0.107664621708,0.0178446049671,0.417000000001,0.45,0,0,2,908,4
0.315787187378,0.119567340351,1.0966556303,0.0267533688871,0.428000000001,0.45,2,2,2,909,4
0.403606482353,0.138230519304,0.0752029142328,1.19964238864,0.441000000001,0.45,3,3,2,910,4
0.180083580758,1.14525898994,0.17868131545,0.0772232347252,0.463000000001,0.45,1,1,1,911,4
0.191498882191,0.0888322859477,0.252219746485,1.04997646556,0.463000000001,0.45,3,3,1,912,4
1.17179379081,0.18796163932,0.130238591849,0.0380356621187,0.426000000001,0.45,0,0,2,913,4
0.211400525071,1.03558574896,0.882941042186,-0.0149705540573,0.446000000001,0.45,1,1,2,914,4
0.0515365575818,1.15704784864,0.0657838517681,0.0514857208802,0.426000000001,0.45,2,1,-1,915,4
0.0892286285411,1.16901622287,0.0218830389475,0.057022255215,0.565000000001,0.45,1,1,1,916,4
1.385320716,0.0601692169447,0.0232360373597,0.0770577240901,0.523000000001,0.45,0,0,1,917,4
0.462194716677,0.0914793093986,0.147685913692,1.19540619437,0.482000000001,0.45,3,3,1,918,4
0.0938278791007,0.0825928859638,1.00580925855,0.0716812112481,0.482000000001,0.45,2,2,1,919,4
1.11740880304,0.0672924254237,0.0536456054772,0.131069757476,0.447000000001,0.45,0,0,2,920,4
0.262454335301,0.0673326143556,1.05066204206,0.136128156731,0.413000000001,0.45,2,2,2,921,4
0.361235679737,0.118289710657,0.0876810043258,1.25073580296,0.398000000001,0.45,3,3,2,922,4
0.154244024944,1.12062905946,0.0212118486083,0.00978127463867,0.372000000001,0.45,1,1,2,923,4
0.233138153947,0.0803927876506,0.0788852218977,1.32282504923,0.397000000001,0.45,3,3,2,924,4
1.01512579615,0.0928424000739,0.0726082915414,0.144730172919,0.343000000001,0.45,0,0,2,925,4
0.281844704681,1.10484152737,0.179864147105,0.123429033312,0.359000000001,0.45,1,1,2,926,4
0.276266168247,0.17059542027,1.18614800707,0.134202478142,0.326000000001,0.45,2,2,2,927,4
0.348538163568,1.05501183585,0.173413826279,0.193448794068,0.407000000001,0.45,1,1,2,928,4
1.03661008765,0.234200739842,0.123571718186,0.150968336717,0.413000000001,0.45,0,0,2,929,4
0.18283237307,0.198396067917,1.0259433857,0.120851287475,0.304000000001,0.45,2,2,2,930,4
0.371672260396,0.154910640434,0.155123202113,1.17796620403,0.305000000001,0.45,3,3,2,931,4
0.150060319347,0.926872753984,1.1996234654,0.155626941172,0.375000000001,0.45,2,2,2,932,4
1.01144391463,0.30094239081,0.0467781141189,0.0358869205977,0.323000000001,0.45,0,0,2,933,4
0.151799371582,0.0507338043401,1.2671705587,0.292048507188,0.360000000001,0.45,3,2,-1,934,4
0.223571819916,1.1749341273,0.151446454489,0.0210394799288,0.480000000001,0.45,1,1,1,935,4
0.190948435229,0.0567266329382,1.12602744618,0.173538662955,0.452000000001,0.45,2,2,1,936,4
1.010346584,0.0568574470583,0.051068471276,0.0918740009448,0.330000000001,0.45,1,0,-1,937,4
0.277621899429,0.0713437469571,0.149061794025,1.23763019423,0.413000000001,0.45,3,3,2,938,4
1.21013445352,0.0619431087149,0.0357966316316,0.096874545932,0.422000000001,0.45,0,0,2,939,4
0.531836178893,1.18624395326,0.0470311965179,0.113552456743,0.329000000001,0.45,1,1,2,940,4
0.37479132609,1.10484140845,0.208758552254,0.540831501426,0.410000000001,0.45,2,1,-1,941,4
1.19236440993,0.153298629525,0.0625141698501,-0.0195199655644,0.461000000001,0.45,0,0,1,942,4
0.243803319976,0.140632520583,0.089244115539,1.30517904047,0.399000000001,0.45,3,3,2,943,4
1.34068992398,0.312587926944,0.0672066568724,0.313677688181,0.441000000001,0.45,0,0,2,944,4
0.241808747678,0.117641690872,1.13013802139,0.137454116175,0.349000000001,0.45,2,2,2,945,4
0.287746169086,0.0987168580302,1.0802597471,0.311935423929,0.367000000001,0.45,3,2,-1,946,4
0.242619725801,1.18164447269,0.0235375973699,0.129555816785,0.432000000001,0.45,1,1,2,947,4
1.39248970546,0.198787331843,0.0254630492342,0.0278925958423,0.479000000001,0.45,0,0,1,948,4
0.341844618391,0.220927239163,0.169399058148,1.01429686966,0.533000000001,0.45,1,3,-1,949,4
0.0516378671352,0.0820590044377,0.0275363556105,1.14196704326,0.346000000001,0.45,3,3,2,950,4
0.203508535719,0.226572170959,1.27738823763,0.182539696652,0.426000000001,0.45,2,2,2,951,4
0.259065157544,1.02230487984,0.159419575921,0.186728860695,0.367000000001,0.45,1,1,2,952,4
1.29311352837,0.286218699231,0.174151463248,0.156235144344,0.304000000001,0.45,0,0,2,953,4
0.263891440623,0.213951272035,1.0988525746,0.125092752455,0.329000000001,0.45,2,2,2,954,4
0.338282224094,0.0889081587053,1.07088699963,0.127815129945,0.392000000001,0.45,3,2,-1,955,4
0.17758415185,1.00629639761,0.0507356195614,0.08843861093,0.442000000001,0.45,2,1,-1,956,4
1.0953053331,0.124962395678,0.10546469748,0.179743166434,0.493000000001,0.45,0,0,1,957,4
0.290087121208,0.137965792665,0.202142597544,1.02861962419,0.517000000001,0.45,3,3,1,958,4
0.274498923502,1.24850873772,0.132212826419,0.163211784248,0.522000000001,0.45,1,1,1,959,4
0.135941679151,0.0312500523679,1.06089975744,0.120678301253,0.441000000001,0.45,2,2,2,960,4
0.14519029603,1.13071200463,0.126485061541,0.182116482902,0.411000000001,0.45,1,1,2,961,4
0.137619790239,0.0755430661527,0.154781174348,1.06463181335,0.331000000001,0.45,3,3,2,962,4
1.28450366536,0.269753473634,0.116815454846,0.284714057914,0.384000000001,0.45,0,0,2,963,4
0.172414205136,1.13510427323,0.123864736178,0.1349293287,0.303000000001,0.45,1,1,2,964,4
0.13286904698,0.0912912518286,1.06208283442,0.126734809136,0.303000000001,0.45,0,2,-1,965,4
0.188427632706,0.0926317265598,0.0425802496635,1.12786614548,0.354000000001,0.45,3,3,2,966,4
0.276882389438,0.231276965465,1.27461145916,0.258588510096,0.317000000001,0.45,2,2,2,967,4
0.489891484302,0.203964890231,0.266958966639,1.41872796954,0.410000000001,0.45,3,3,2,968,4
1.15618630498,0.143150662683,0.417227870616,0.443676734073,0.397000000001,0.45,0,0,2,969,4
0.207543052783,0.794869460312,1.1433826598,0.266759529202,0.378000000001,0.45,2,2,2,970,4
1.5225249573,0.145692190088,0.0726996662563,0.190533416235,0.338000000001,0.45,1,0,-1,971,4
0.12313019316,1.16688932813,0.150796715405,0.189542849648,0.345000000001,0.45,2,1,-1,972,4
0.208124481084,1.12298084297,0.023438248511,0.114977830434,0.410000000001,0.45,0,1,-1,973,4
0.106857515264,0.0776355398788,1.18336920927,0.140650823793,0.409000000001,0.45,1,2,-1,974,4
0.269588200611,0.149925495212,0.116341390259,0.195007373395,0.7,0.45,3,-1,0,976,4
0.317040954829,0.131200790798,0.176092666585,1.03515129732,0.198000000001,0.45,1,3,-1,976,4
0.187394829964,0.125302817504,1.08860928159,0.043122975114,0.454000000001,0.45,2,2,1,977,4
1.20799064526,0.0361431033656,0.039445979332,0.11971507207,0.468000000001,0.45,0,0,1,978,4
0.219555923759,0.0487713001549,0.193782322659,1.00313254033,0.395000000001,0.45,3,3,2,979,4
0.236893283574,1.08802648077,0.039989422385,0.0638201278826,0.310000000001,0.45,2,1,-1,980,4
0.178016842459,0.08265571423,0.0278688913545,1.08203018211,0.543000000001,0.45,3,3,1,981,4
1.02803598017,0.217079958912,0.0866306253439,0.384186780683,0.481000000001,0.45,0,0,1,982,4
0.245523362177,1.08719432437,0.0997952933869,0.117963529783,0.491000000001,0.45,1,1,1,983,4
0.0862326332469,0.263158462452,1.20362669426,0.140626222758,0.356000000001,0.45,3,2,-1,984,4
0.23282274225,1.20538133787,0.023440400042,0.0978285317324,0.562000000001,0.45,1,1,1,985,4
1.12625889285,0.240380406896,0.0234379477756,0.21519577778,0.406000000001,0.45,0,0,2,986,4
0.294681983396,0.146768388771,0.0197788978236,1.00135994992,0.376000000001,0.45,2,3,-1,987,4
1.02866762082,0.202263370747,0.0545115826465,0.0504157368135,0.384000000001,0.45,1,0,-1,988,4
0.237862295988,0.268516816715,0.0327376143155,1.05169247619,0.379000000001,0.45,3,3,2,989,4
1.03188401098,0.0875025138199,0.0274455480262,0.0612501694811,0.314000000001,0.45,0,0,2,990,4
0.124662719905,0.0782340460317,1.01127886875,0.0911568261084,0.474000000001,0.45,2,2,1,991,4
0.192133945824,0.0801394989681,0.0501052888431,1.11765708601,0.434000000001,0.45,3,3,2,992,4
0.208287645964,1.02231228394,0.427994651303,0.141756959023,0.425000000001,0.45,2,1,-1,993,4
1.0598778054,0.150224374059,0.182846707405,0.220107871329,0.444000000001,0.45,0,0,2,994,4
0.12889344371,1.01381454215,0.443659723768,0.120169380973,0.426000000001,0.45,1,1,2,995,4
0.114690743614,1.02933251554,0.0170151951674,0.0672033409143,0.373000000001,0.45,2,1,-1,996,4
0.0606562890468,1.0126181067,0.122361392059,0.105453865431,0.429000000001,0.45,1,1,2,997,4
1.36416045848,0.0468831074405,0.00369524237002,0.0928682756013,0.406000000001,0.45,0,0,2,998,4
0.124534802114,0.209775571442,1.02520680132,0.11135464218,0.378000000001,0.45,3,2,-1,999,4
0.140734975832,1.08992029668,0.000262668070255,0.0162405439533,0.383000000001,0.45,1,1,2,1000,4
1.29713799698,0.0963323930412,1.82031156772e-05,0.0242878523088,0.367000000001,0.45,0,0,2,1001,4
0.200483205489,0.0484688547203,0.0192894531212,1.302711529,0.357000000001,0.45,3,3,2,1002,4
0.196206657965,1.06982299191,0.0425875390506,0.0451231272368,0.264000000001,0.45,2,1,-1,1003,4
0.0742244984801,0.0940392378319,0.928179605711,1.15663885197,0.471000000001,0.45,3,3,1,1004,4
1.06397815148,0.297430387217,0.0246889112682,0.0661372650453,0.387000000001,0.45,0,0,2,1005,4
0.11378350896,0.0523368290419,1.10210613804,0.0727931520063,0.324000000001,0.45,2,2,2,1006,4
1.20027883038,0.0508548872069,0.0527015621798,0.128881553938,0.289000000001,0.45,1,0,-1,1007,4
0.115258750962,0.079058635726,1.08755403986,0.0511124075246,0.353000000001,0.45,2,2,2,1008,4
1.24016191964,0.195275676467,0.0605015870754,0.133409364982,0.441000000001,0.45,0,0,2,1009,4
0.0998751087559,1.0703643267,0.110437728053,0.0951911542579,0.316000000001,0.45,1,1,2,1010,4
0.225139834792,0.132352168572,0.11426806367,1.10859717801,0.279000000001,0.45,3,3,2,1011,4
1.04218993688,0.0405049847339,0.0192688737953,0.0156249222768,0.326000000001,0.45,1,0,-1,1012,4
1.18673941825,0.0358295339215,0.0247010448428,0.040979999903,0.503000000001,0.45,0,0,1,1013,4
0.0857068887453,0.0232161211257,1.23098708925,0.153997131433,0.430000000001,0.45,2,2,2,1014,4
0.0982972007008,0.0918665164889,0.0666288658775,1.13416236687,0.373000000001,0.45,3,3,2,1015,4
0.0520557203552,0.175623214402,1.02680806293,0.124347438323,0.480000000001,0.45,2,2,1,1016,4
1.19653902913,0.194708613157,0.084419785395,0.177484655946,0.7,0.45,0,-1,0,1018,4
1.19653902913,0.194708613157,0.084419785395,0.177484655946,0.00400000000056,0.45,3,0,-1,1018,4
0.224899648173,1.14399621296,0.0331395769173,0.107423761077,0.517000000001,0.45,1,1,1,1019,4
0.0401731440044,0.061779475047,1.012906079,0.112672827387,0.477000000001,0.45,2,2,1,1020,4
1.03987602663,0.167060820631,0.0156267038012,0.179772847126,0.387000000001,0.45,1,0,-1,1021,4
0.0448259997409,0.125353712796,0.00763366872928,1.01638721159,0.344000000001,0.45,3,3,2,1022,4
1.03440226566,0.110103717653,0.0524640851881,0.0830814281143,0.543000000001,0.45,0,0,1,1023,4
0.227353964466,1.24019204781,0.407901259481,0.0647683939771,0.475000000001,0.45,1,1,1,1024,4
0.10839074833,0.125154090148,0.147002974075,1.1721489972,0.398000000001,0.45,3,3,2,1025,4
0.0478401191428,0.0129566676139,1.22191458596,0.113324418613,0.377000000001,0.45,2,2,2,1026,4
1.44961660907,0.0914352719635,0.0512038822945,0.189064904092,0.404000000001,0.45,0,0,2,1027,4
0.069702870191,0.0992836103635,1.13396535987,0.138542093862,0.395000000001,0.45,2,2,2,1028,4
0.26905777369,0.139971620376,0.168117657047,1.32333446141,0.386000000001,0.45,3,3,2,1029,4
1.42397772589,0.0969179965385,0.0473384184539,0.127089825,0.434000000001,0.45,0,0,2,1030,4
0.130789105889,0.0792328739148,0.105094217257,1.61907829693,0.410000000001,0.45,3,3,2,1031,4
0.0961888961215,1.20209002463,0.00873505678836,0.0461036021693,0.433000000001,0.45,1,1,2,1032,4
0.167017202393,0.0724610412521,1.27768110817,0.120646686224,0.388000000001,0.45,2,2,2,1033,4
1.42414402716,0.0468300766132,0.0156255566463,0.037835626113,0.326000000001,0.45,1,0,-1,1034,4
1.31570261029,0.0362993704588,0.0145758240215,0.101164613398,0.569000000001,0.45,0,0,1,1035,4
0.0979507377442,1.23977680443,0.00543496640082,-0.0270424471928,0.477000000001,0.45,1,1,1,1036,4
0.224274127396,0.669684378164,1.13464638896,0.11474549526,0.500000000001,0.45,2,2,1,1037,4
0.226871256449,0.0846966963278,0.0760172395895,1.10760803311,0.393000000001,0.45,3,3,2,1038,4
1.02078377808,0.0853949193091,0.0322197231924,0.0857538013829,0.436000000001,0.45,0,0,2,1039,4
0.238618263133,0.114886325782,0.0772850421999,1.08165146609,0.396000000001,0.45,3,3,2,1040,4
0.142025920681,0.0641091728447,1.22861660832,0.0943274435612,0.375000000001,0.45,2,2,2,1041,4
1.11420004702,0.0915541344689,0.0770033357757,0.188510189431,0.516000000001,0.45,0,0,1,1042,4
0.209961293129,0.0892831102909,1.03575807677,0.117092383935,0.558000000001,0.45,2,2,1,1043,4
0.120964532228,1.25520373816,0.0390640345906,0.0856268318053,0.490000000001,0.45,1,1,1,1044,4
1.41649850965,0.0470736924695,0.00829706609551,0.0945345952629,0.422000000001,0.45,0,0,2,1045,4
0.313136766317,0.280493108206,1.00938269299,0.0783545249375,0.433000000001,0.45,1,2,-1,1046,4
0.0524942234903,0.0390625007233,0.0350158470112,1.05126138255,0.443000000001,0.45,3,3,2,1047,4
0.0836575238023,1.0143205392,0.0447205539821,0.102222959761,0.432000000001,0.45,1,1,2,1048,4
1.02197282365,0.0546932944639,0.0219039469992,0.108673332439,0.378000000001,0.45,0,0,2,1049,4
0.195518649962,0.0463218141612,1.17972593695,0.10045049024,0.384000000001,0.45,2,2,2,1050,4
0.232626492992,0.0374405338314,0.035284570067,1.06404895113,0.327000000001,0.45,3,3,2,1051,4
0.170713250594,0.0277957207766,0.0951551580918,1.10548407398,0.475000000001,0.45,2,3,-1,1052,4
1.41104019219,0.0244336644177,0.0243693587429,0.0519273406943,0.463000000001,0.45,0,0,1,1053,4
0.444784695971,0.122039305528,0.980331121681,1.33310185812,0.447000000001,0.45,3,3,2,1054,4
1.09958781015,0.149239033791,0.0848137035244,0.123586719432,0.434000000001,0.45,0,0,2,1055,4
0.288327925073,0.153708811165,1.17398311983,0.103664928871,0.393000000001,0.45,1,2,-1,1056,4
0.14885522758,0.052514519127,1.05336366232,0.105519479635,0.321000000001,0.45,3,2,-1,1057,4
0.16088626769,1.34121975128,0.0235115951374,0.0490752105956,0.393000000001,0.45,1,1,2,1058,4
0.034085887981,0.0468749996356,-0.00651318789136,1.05682125526,0.414000000001,0.45,2,3,-1,1059,4
1.18449677048,0.0389975476169,0.020924959164,0.0451139808001,0.431000000001,0.45,1,0,-1,1060,4
-0.000821905186711,0.0314852725968,0.0084272555318,1.52766688712,0.475000000001,0.45,3,3,1,1061,4
1.23800347701,0.0632425820661,0.120998663369,0.00571718967333,0.513000000001,0.45,0,0,1,1062,4
0.158206597433,0.0849211869225,1.01754251229,0.094541107329,0.367000000001,0.45,2,2,2,1063,4
1.29492308836,0.0854035899017,0.115936188723,0.151690701767,0.309000000001,0.45,0,0,2,1064,4
0.138732836954,0.0784979715895,1.14644762427,0.109855233425,0.272000000001,0.45,3,2,-1,1065,4
0.0641593080299,0.0456269490643,1.0634615422,0.0842017778127,0.392000000001,0.45,2,2,2,1066,4
0.319393790693,0.0391706865455,0.0396157671436,1.17898434229,0.357000000001,0.45,3,3,2,1067,4
0.195424553369,1.30221582546,0.0213867701852,0.0771519892922,0.360000000001,0.45,1,1,2,1068,4
1.220541965,0.170052282627,0.093257228904,0.148313422502,0.296000000001,0.45,0,0,2,1069,4
0.173800653851,1.26099526254,0.12098273786,0.164904158446,0.459000000001,0.45,1,1,1,1070,4
0.0651608374894,0.166427307425,1.05242640229,0.13500494896,0.407000000001,0.45,2,2,2,1071,4
1.37686361017,0.20714489245,0.158269922199,0.196445129803,0.350000000001,0.45,1,0,-1,1072,4
1.08030219859,0.0809743534236,0.0347262067887,0.124776800015,0.347000000001,0.45,0,0,2,1073,4
0.232987294457,0.0956655899326,1.20849145442,0.140858123169,0.301000000001,0.45,2,2,2,1074,4
0.214241859471,0.103331067011,1.21881414615,0.186632387825,0.330000000001,0.45,3,2,-1,1075,4
1.17052666958,0.391952074359,0.0232172818667,0.0601798139373,0.426000000001,0.45,0,0,2,1076,4
0.240663146054,0.0753141863429,0.0293434191251,1.0818052244,0.387000000001,0.45,3,3,2,1077,4
0.238253749425,0.0793143803485,1.18522469612,0.107344746025,0.356000000001,0.45,2,2,2,1078,4
1.27463139476,0.0852126689937,0.0918461067281,0.206906775282,0.351000000001,0.45,0,0,2,1079,4
0.360508148176,1.16294700331,0.271726120467,0.129932858361,0.419000000001,0.45,1,1,2,1080,4
0.128315473932,0.160955704822,1.04576267051,0.041322927234,0.352000000001,0.45,2,2,2,1081,4
1.24712208292,0.089597140827,0.668109013958,0.0909110534354,0.441000000001,0.45,1,0,-1,1082,4
0.126571881378,0.170815342195,0.0992634671219,1.16461569974,0.413000000001,0.45,3,3,2,1083,4
0.0782175338861,1.00609231398,0.138871650654,0.128034227067,0.472000000001,0.45,1,1,1,1084,4
0.14639403761,1.0111377928,0.0261177745805,0.0710617293703,0.7,0.45,1,-1,0,1086,5
0.14639403761,1.0111377928,0.0261177745805,0.0710617293703,0.0020000000006,0.45,2,1,-1,1086,5
0.184113466085,0.143084196015,0.559236372072,1.03050019063,0.349000000001,0.45,3,3,2,1087,5
1.46121315691,0.114700102948,0.0169799536314,0.0142919573295,0.325000000001,0.45,0,0,2,1088,5
0.135036798778,0.228161647988,1.20711487576,0.0769215807078,0.324000000001,0.45,3,2,-1,1089,5
0.340152263399,0.207171425913,1.12226502774,-0.0293146397884,0.333000000001,0.45,2,2,2,1090,5
1.29111631501,0.142774397789,0.065176094465,0.107850895806,0.305000000001,0.45,0,0,2,1091,5
0.383427067874,1.18693705263,0.113147075748,0.0974833572833,0.352000000001,0.45,1,1,2,1092,5
1.1980074211,0.13847306525,0.0540889063097,0.113721685521,0.368000000001,0.45,0,0,2,1093,5
0.1874812761,0.158824188219,1.22163859794,0.125449166149,0.327000000001,0.45,2,2,2,1094,5
0.684644784066,1.07033697374,0.0619563605424,0.116382320397,0.387000000001,0.45,1,1,2,1095,5
0.0780100394338,0.0692725920848,0.180764598747,1.12911704249,0.435000000001,0.45,3,3,2,1096,5
0.15657051349,1.03725035324,0.0577532207893,0.0386482067497,0.386000000001,0.45,1,1,2,1097,5
0.0571685707782,0.0752901396682,1.02705196817,0.0595492290435,0.384000000001,0.45,2,2,2,1098,5
0.0513321796915,0.0978473120218,0.278210799591,1.10986759435,0.449000000001,0.45,3,3,2,1099,5
1.05638277294,0.110836928915,0.0725881553721,0.134503664619,0.428000000001,0.45,0,0,2,1100,5
0.0487418568574,0.645714962621,1.06428848916,0.130626559646,0.441000000001,0.45,2,2,2,1101,5
1.12494598702,0.111058804312,0.129302517163,0.184929934517,0.369000000001,0.45,0,0,2,1102,5
0.172586160886,0.082741473287,0.131970463891,1.01242300712,0.376000000001,0.45,3,3,2,1103,5
0.057910503709,0.565506395734,1.07144230649,0.120179840392,0.455000000001,0.45,2,2,1,1104,5
0.0531542269949,1.14367207459,0.0688938288714,0.170009830643,0.483000000001,0.45,1,1,1,1105,5
1.22505599229,0.116288588064,0.0314540366987,0.0880814094898,0.432000000001,0.45,0,0,2,1106,5
0.262335341489,1.1269662153,0.0634677453558,0.117726922408,0.422000000001,0.45,1,1,2,1107,5
0.0584931877686,0.117559305674,0.044048952259,1.02748597724,0.391000000001,0.45,3,3,2,1108,5
0.271532968898,1.07986088784,0.0394647540745,0.0613852108139,0.413000000001,0.45,1,1,2,1109,5
0.0103005466722,0.488763440248,1.22576123994,0.123021523314,0.528000000001,0.45,2,2,1,1110,5
1.01457234701,0.121320977628,0.0829228487216,0.209706095432,0.455000000001,0.45,0,0,1,1111,5
0.217336603572,0.0857249179856,0.0892303418504,1.18814195926,0.448000000001,0.45,3,3,2,1112,5
1.000671495,0.238549889345,0.0824800771919,0.111108571657,0.401000000001,0.45,0,0,2,1113,5
0.202571310058,1.15135167613,0.0920034328505,0.147826640081,0.360000000001,0.45,2,1,-1,1114,5
0.148448190098,0.0630771054869,0.24994896234,1.19380382315,0.368000000001,0.45,3,3,2,1115,5
0.107091150394,1.01185302582,0.0527632986428,0.155498568905,0.347000000001,0.45,2,1,-1,1116,5
0.0352228447551,1.01077733738,0.0409203322715,0.134659847263,0.438000000001,0.45,1,1,2,1117,5
0.017059705988,0.0390513131054,1.14844920419,0.336427581336,0.486000000001,0.45,3,2,-1,1118,5
1.39359725421,0.0466853880676,0.113695562177,0.131893513491,0.442000000001,0.45,1,0,-1,1119,5
1.26594821305,0.061137393709,0.0979236420058,0.134329866925,0.451000000001,0.45,0,0,1,1120,5
0.463084469199,1.16744756461,0.0329913285287,0.029771650043,0.477000000001,0.45,1,1,1,1121,5
0.036406796709,0.109510309562,1.04603634413,0.127060720944,0.533000000001,0.45,2,2,1,1122,5
1.15631398407,0.0231812873816,0.114464733205,0.0864721683134,0.399000000001,0.45,0,0,2,1123,5
0.273589074561,0.0140764554104,0.924090930176,1.02776857863,0.405000000001,0.45,3,3,2,1124,5
1.16757305658,0.71370172115,0.120474544193,0.0886807420012,0.463000000001,0.45,0,0,1,1125,5
0.167705918101,0.0761262146429,1.14431294266,0.11467086985,0.434000000001,0.45,2,2,2,1126,5
0.274951570879,0.0442816751026,0.311635185825,1.21657124317,0.484000000001,0.45,3,3,1,1127,5
0.220362413119,1.14131072966,0.0373395840506,0.0830454315096,0.511000000001,0.45,1,1,1,1128,5
0.0658482081643,0.0489440485349,0.0542988845087,1.00299016939,0.461000000001,0.45,3,3,1,1129,5
0.0445211079317,1.06951983565,0.100341821776,0.0844470103861,0.480000000001,0.45,2,1,-1,1130,5
0.134045400674,1.1969654445,0.0883607520564,0.173970031782,0.508000000001,0.45,1,1,1,1131,5
1.14545218089,0.0624504154328,0.0677759057042,0.13398798581,0.431000000001,0.45,0,0,2,1132,5
1.21934247874,0.0340121105754,0.18051897201,0.188939256351,0.493000000001,0.45,1,0,-1,1133,5
1.36451774958,0.118227203004,0.161437334477,0.168211234332,0.558000000001,0.45,0,0,1,1134,5
0.156448665038,1.02659726055,0.302343720487,0.128330297668,0.548000000001,0.45,2,1,-1,1135,5
0.174631604767,0.0483480363509,0.0792825436938,1.216607971,0.531000000001,0.45,3,3,1,1136,5
0.177790749832,0.0788714441787,1.14926718179,0.138252557288,0.471000000001,0.45,2,2,1,1137,5
1.02552924608,0.138370467738,0.136192708527,0.208904755373,0.417000000001,0.45,0,0,2,1138,5
0.0653931813094,0.0518973020126,1.07067459933,0.34572418125,0.364000000001,0.45,3,2,-1,1139,5
0.114480175167,1.04961623856,0.0303688653667,0.0716153823238,0.401000000001,0.45,1,1,2,1140,5
0.0435843339212,0.0446377281996,1.05717888664,0.0392776050182,0.379000000001,0.45,2,2,2,1141,5
0.313392385804,1.0550041667,0.022865754792,0.129593014702,0.509000000001,0.45,1,1,1,1142,5
0.0117382790883,0.0664894785188,0.049754351786,1.13372853133,0.570000000001,0.45,3,3,1,1143,5
1.22281769358,0.172049518357,0.0582450448259,0.126627067464,0.513000000001,0.45,0,0,1,1144,5
0.105592031184,1.02742612821,0.0805580948736,0.150940505977,0.586000000001,0.45,1,1,1,1145,5
0.123796734657,0.123535759812,0.132295398598,1.08827850702,0.552000000001,0.45,3,3,1,1146,5
0.156163171468,1.1440535834,0.403186721813,0.107995699172,0.564000000001,0.45,2,1,-1,1147,5
1.04497159131,0.139673101004,0.0863202329791,0.108890897021,0.485000000001,0.45,0,0,1,1148,5
0.149537182682,0.0774577880951,1.0574292811,0.0879073717936,0.452000000001,0.45,2,2,1,1149,5
0.252106375875,0.0910399155236,0.0358529091786,1.01575785763,0.356000000001,0.45,3,3,2,1150,5
1.32958792307,0.173162644867,0.0847149294198,0.191497008662,0.393000000001,0.45,0,0,2,1151,5
0.278094851035,1.23609241621,0.0696447359403,0.12585889599,0.392000000001,0.45,1,1,2,1152,5
1.01357555188,0.142626913524,0.134892322079,0.152138218179,0.401000000001,0.45,0,0,2,1153,5
0.267108350771,0.105820265225,0.207066335389,1.17036680383,0.436000000001,0.45,3,3,2,1154,5
0.179042431609,1.12811332865,0.120532208994,0.131232304952,0.493000000001,0.45,1,1,1,1155,5
0.347295299446,0.131093162975,0.0670287396519,1.14152588531,0.453000000001,0.45,2,3,-1,1156,5
0.3162536966,1.06334923873,0.0759454554501,0.101103633474,0.578000000001,0.45,1,1,1,1157,5
0.14971361414,0.0528643500934,1.12249331727,0.116480124205,0.497000000001,0.45,2,2,1,1158,5
1.15873377148,0.0380369848308,0.072638145242,0.177963044344,0.428000000001,0.45,0,0,2,1159,5
0.081796928801,0.0439160264816,0.568738366853,1.15524851734,0.463000000001,0.45,3,3,1,1160,5
0.144090696918,0.165517653362,1.17638321159,0.0744303989855,0.506000000001,0.45,2,2,1,1161,5
0.0642562328577,0.051807973842,0.0535434274292,1.14352254151,0.623000000001,0.45,3,3,1,1162,5
1.04843681669,0.0477785097339,0.0109229525621,0.0765360560864,0.466000000001,0.45,0,0,1,1163,5
0.108590228844,0.0811531177181,1.01184272101,0.124274344753,0.377000000001,0.45,2,2,2,1164,5
1.02598501436,0.0675865268283,0.0691483699632,0.137784433557,0.352000000001,0.45,1,0,-1,1165,5
1.31576120211,0.046717432626,0.0179103258993,0.0397487761008,0.551000000001,0.45,0,0,1,1166,5
0.0385224543625,1.39226928386,0.023688298979,0.0181044744601,0.458000000001,0.45,1,1,1,1167,5
0.131003815772,0.0700703656449,0.0256945269213,1.1797332492,0.356000000001,0.45,3,3,2,1168,5
1.06363871981,0.056183758047,0.0292212457175,0.050500203391,0.505000000001,0.45,1,0,-1,1169,5
0.687394333749,1.13737791824,0.0238940131057,0.0354343814423,0.615000000001,0.45,0,1,-1,1170,5
0.0643051014548,0.048041847168,1.12507131048,0.120595671595,0.534000000001,0.45,2,2,1,1171,5
0.0713084747442,0.0470214392821,0.131659744049,1.23427874507,0.453000000001,0.45,3,3,1,1172,5
1.02531418523,0.0473040247012,-0.00499534402057,0.093840876845,0.382000000001,0.45,0,0,2,1173,5
0.105515226748,0.0571072469325,1.02151046982,0.0992536951158,0.370000000001,0.45,3,2,-1,1174,5
1.37919233535,0.0559291838315,0.0718628970283,0.176983061535,0.307000000001,0.45,2,0,-1,1175,5
