force_0,force_1,force_2,force_3,rt,rt_threshold,target_finger,selected_finger,score,trial,run
0.40453267089,0.263203974972,0.597266786167,0.205632249084,0.7,0.45,2,-1,0,1,0
0.477299159336,0.245134980894,1.11388989975,0.23826683676,0.067,0.45,0,2,-1,1,0
0.337295604171,0.144116240123,0.628769408689,1.51646874514,0.471,0.45,3,3,1,2,0
0.540774096543,1.1145630782,0.477330796447,0.079052890783,0.481,0.45,1,1,1,3,0
1.6416901277,0.232818528678,0.138022247038,0.0651614795089,0.357,0.45,0,0,2,4,0
0.870281672674,1.05445043486,0.336563022625,0.0899349944412,0.47,0.45,1,1,1,5,0
0.156083295655,0.190907719811,0.119099681831,1.14695201291,0.42,0.45,3,3,2,6,0
0.106282305812,0.15594845215,0.147940312526,0.0606891138228,0.7,0.45,2,-1,0,8,0
0.411472352528,0.148446864832,1.07477582304,0.11475566174,0.199,0.45,3,2,-1,8,0
1.2956037199,0.186728866056,0.123323385053,0.020388909684,0.335,0.45,0,0,2,9,0
0.488969205321,0.170966249601,1.19039034956,0.216105281038,0.464,0.45,2,2,1,10,0
1.2373601566,0.130102425558,0.182186413711,0.0365838026188,0.356,0.45,1,0,-1,11,0
0.0376308714455,0.00522936880723,1.12136855812,0.170902376374,0.449,0.45,2,2,2,12,0
1.64351717092,0.0702980490383,0.205544593358,0.101796567453,0.394,0.45,0,0,2,13,0
0.490338281366,1.10947128242,0.0814390266261,0.0612029099223,0.384,0.45,1,1,2,14,0
0.419033971398,0.255060323711,0.215854549666,1.27082948955,0.335,0.45,3,3,2,15,0
1.0355500031,0.182510894589,0.154256431767,0.0192502410068,0.255,0.45,0,0,2,16,0
0.611858264175,0.157419883443,1.03570724925,0.155967844325,0.338,0.45,3,2,-1,17,0
0.405292454547,1.0406025758,0.563328178001,0.0554531535597,0.399,0.45,1,1,2,18,0
0.140192555636,0.0589302375223,1.0723966704,0.126006758801,0.444,0.45,2,2,2,19,0
0.240160289623,0.120265289413,0.185790474374,1.14631548569,0.308,0.45,3,3,2,20,0
1.06199240643,0.193108146589,0.186012845209,0.0372846492573,0.304,0.45,2,0,-1,21,0
1.02660412249,0.0548760048247,0.153933627118,0.0799635285258,0.292,0.45,1,0,-1,22,0
1.68536487671,0.0200389029922,0.104844935605,0.182974426581,0.333,0.45,0,0,2,23,0
0.350878664141,0.125851815272,1.03483769618,0.142548477088,0.389,0.45,2,2,2,24,0
0.233517375697,0.10651184489,0.1354664253,1.13554403132,0.325,0.45,3,3,2,25,0
1.55915714893,0.217889766394,0.160342210396,0.0592293289401,0.332,0.45,0,0,2,26,0
0.369968924614,1.02195769031,0.1337684214,0.0737908552457,0.323,0.45,1,1,2,27,0
0.303116130044,0.203800167246,0.125691233666,1.30864937754,0.411,0.45,3,3,2,28,0
1.01894233506,0.259388648227,0.159838477112,0.0114511396018,0.349,0.45,1,0,-1,29,0
1.06870571057,0.233278849046,0.145902342574,0.00291953149011,0.284,0.45,0,0,2,30,0
0.195150363764,0.181964437197,0.174256578456,1.36700789294,0.313,0.45,3,3,2,31,0
0.305282850899,0.177859877048,1.10582036905,0.117950072098,0.373,0.45,2,2,2,32,0
1.02073161236,0.38234829069,0.0487037127365,0.086030014632,0.376,0.45,0,0,2,33,0
0.283740818407,0.291729210635,0.370855442027,1.04610843923,0.474,0.45,2,3,-1,34,0
0.918397096539,1.17301414611,0.115115846528,0.0681976380504,0.419,0.45,1,1,2,35,0
0.418066968902,0.193594961151,1.32580338967,0.0644935550941,0.423,0.45,2,2,2,36,0
1.4138865142,0.175763808713,0.145289956229,0.413986526613,0.393,0.45,0,0,2,37,0
0.193795492703,0.183056068978,0.159882878685,1.17315065803,0.275,0.45,3,3,2,38,0
0.493450370657,1.15580996623,0.137992495747,0.0412521081193,0.361,0.45,1,1,2,39,0
1.20165872236,0.259200769015,0.127288289178,0.0408294961202,0.371,0.45,0,0,2,40,0
0.760100372147,1.01885698693,0.475014767771,0.100583833855,0.457,0.45,1,1,1,41,0
0.218967868146,0.267390799403,0.0304428098807,1.27591525543,0.341,0.45,3,3,2,42,0
1.26967227309,0.176264652823,0.213029027308,0.107450564768,0.362,0.45,0,0,2,43,0
0.313025752843,0.205362983126,1.11778022104,0.142350392193,0.347,0.45,2,2,2,44,0
0.95663097087,1.11350742501,0.2710612465,0.409565650237,0.464,0.45,1,1,1,45,0
0.149154399483,0.304329730765,1.11283877205,0.0409488503512,0.452,0.45,2,2,1,46,0
0.189419832981,0.0957278204465,0.122534561013,1.43432798566,0.324,0.45,3,3,2,47,0
0.613165863569,0.0880910346788,1.00934827521,0.131920253526,0.438,0.45,2,2,2,48,0
0.213046896966,0.0497739352614,0.909194575314,1.26221241558,0.463,0.45,3,3,1,49,0
1.17107399711,0.114339204877,0.0587558199124,0.0592982283685,0.374,0.45,0,0,2,50,0
0.436013778592,1.04653804688,0.167159033037,0.0959520243629,0.358,0.45,1,1,2,51,0
0.100988763267,0.224697417929,0.908421929697,1.1862066366,0.494,0.45,3,3,1,52,0
0.667756826392,1.14203730859,0.0639788480792,0.0175669928854,0.444,0.45,1,1,2,53,0
1.56867507362,0.224482180708,0.130335645815,0.101667895872,0.397,0.45,0,0,2,54,0
0.0415297624381,0.159133925023,0.909162186322,1.04227992415,0.427,0.45,3,3,2,55,0
0.261953293728,0.118999074107,1.17376516358,0.116547111337,0.324,0.45,2,2,2,56,0
0.670547719635,1.02710494959,0.0918236282811,0.112392892065,0.349,0.45,1,1,2,57,0
1.01094593683,0.163995135429,0.0690362301313,0.053642472403,0.136,0.45,2,0,-1,58,0
1.3128823525,0.181297636122,0.158185169924,0.0281810856645,0.308,0.45,0,0,2,59,0
0.262395999085,0.132017955084,1.10396821086,0.0608858692081,0.376,0.45,2,2,2,60,0
0.22052083355,0.112775566676,0.0749294117533,1.15404493492,0.386,0.45,3,3,2,61,0
1.16375309287,0.153483869575,0.172381380854,-0.00811938225409,0.319,0.45,1,0,-1,62,0
1.12490626222,0.220078652588,0.0993291766441,0.195750372466,0.366,0.45,0,0,2,63,0
0.106429760936,1.0406885889,0.0819497147337,0.0697617611326,0.402,0.45,1,1,2,64,0
0.0278510099042,0.159217182304,0.571660344405,1.1060097715,0.45,0.45,3,3,1,65,0
1.11489733642,0.230414738019,0.156961707748,-0.00074079620636,0.478,0.45,0,0,1,66,0
0.261438927022,0.360239057518,1.02584663242,0.0650832072347,0.469,0.45,2,2,1,67,0
1.07564594544,0.163017241676,0.170612770408,0.082574578588,0.438,0.45,0,0,2,68,0
0.211118942249,0.174927065465,0.209473837078,1.31792158395,0.391,0.45,3,3,2,69,0
0.418863314098,0.215971687494,1.05286797412,0.167896991295,0.532,0.45,2,2,1,70,0
0.608417804868,1.12906514461,0.0652653351464,0.118941662755,0.488,0.45,1,1,1,71,0
0.169881837635,0.127171128607,1.09009760925,0.162405082804,0.456,0.45,2,2,1,72,0
0.0851162553025,0.182781557629,0.195738071256,1.44626279643,0.275,0.45,1,3,-1,73,0
0.203449451853,0.293141641364,0.226739979534,1.23990544873,0.336,0.45,3,3,2,74,0
1.73269927782,0.269949828881,0.185883489992,0.0673809187437,0.298,0.45,0,0,2,75,0
0.269341640575,1.06521738646,0.163920106534,0.0610859741844,0.243,0.45,1,1,2,76,0
0.205745992946,0.29361580256,0.222699628246,1.26861798814,0.237,0.45,0,3,-1,77,0
0.288544798199,0.227242053725,0.200557823384,1.00066957562,0.315,0.45,3,3,2,78,0
1.21149476903,0.223304704826,0.152265132692,0.0431876207896,0.284,0.45,1,0,-1,79,0
0.283169518105,0.185577735611,1.12596658292,0.0962672183193,0.402,0.45,2,2,2,80,0
1.15802406901,0.139265722426,0.0805400950809,0.084404960386,0.299,0.45,0,0,2,81,0
0.20305042343,0.344664503546,1.10097877833,0.210750124215,0.419,0.45,2,2,2,82,0
0.0562732968021,0.0679465227325,0.22021199482,1.13218726867,0.299,0.45,3,3,2,83,0
1.24857524552,0.173355910591,0.155274844897,0.0453653909802,0.255,0.45,2,0,-1,84,0
0.407846342092,0.20392626566,0.431347286315,1.27084288574,0.399,0.45,3,3,2,85,0
1.47555253239,0.174948950465,0.137280300942,0.0499910743797,0.31,0.45,0,0,2,86,0
0.4041079862,1.06552383932,0.35347131927,0.0455832889135,0.468,0.45,1,1,1,87,0
0.126116972589,0.152505632603,0.066798545603,1.54250361214,0.308,0.45,3,3,2,88,0
1.32064712882,0.35146886581,0.190910609948,0.132012339176,0.392,0.45,1,0,-1,89,0
1.30114599441,0.242564304005,0.105328909821,0.0829442325911,0.401,0.45,0,0,2,90,0
0.218315439629,0.153173651975,1.00990563591,0.0865688406256,0.404,0.45,2,2,2,91,0
1.09508644538,0.225803215095,0.233203286925,0.197168519164,0.422,0.45,0,0,2,92,0
0.116659359638,0.179456587044,0.164720258941,1.44852298509,0.327,0.45,3,3,2,93,0
0.410084743405,0.218784864934,1.12787675305,0.176396483932,0.431,0.45,2,2,2,94,0
1.72050965851,0.213439837089,0.15185834582,0.0916101656647,0.289,0.45,1,0,-1,95,0
0.199922304291,0.147287837108,1.2528677578,0.319241568802,0.411,0.45,2,2,2,96,0
1.09612084955,0.15735112942,0.142231463328,0.147285835349,0.31,0.45,0,0,2,97,0
0.506821909267,1.02814204659,0.780792849206,0.0902408014518,0.456,0.45,1,1,1,98,0
0.0824740737139,0.159794358911,0.496337506239,1.52855982379,0.38,0.45,3,3,2,99,0
0.468774417241,1.03842612121,0.12842645628,0.0496976239689,0.427,0.45,1,1,2,100,0
1.46648941538,0.259238098944,0.0588603734894,0.154618348383,0.346,0.45,0,0,2,101,0
0.184899019552,0.167140669818,0.155626474177,1.39417528795,0.306,0.45,3,3,2,102,0
0.258134038694,0.186353728227,1.06493147207,0.187080705141,0.435,0.45,2,2,2,103,0
0.173161423786,0.173140954273,0.199213282787,1.34014435315,0.468,0.45,3,3,1,104,0
1.36467542031,0.113813378577,0.142858986429,0.0897975984169,0.323,0.45,0,0,2,105,0
0.238431006119,0.667794289328,1.16954813085,0.218651848293,0.492,0.45,2,2,1,106,0
1.25752664084,0.177352058523,0.157170422422,0.124419528027,0.351,0.45,1,0,-1,107,0
0.199939047554,0.172245706518,0.250166388718,1.20561967454,0.412,0.45,2,3,-1,108,0
0.128871306685,0.106102849596,0.349248773804,1.24715794544,0.38,0.45,3,3,2,109,0
1.05309647676,0.178279043502,0.16587303216,0.0303822036253,0.289,0.45,0,0,2,110,0
0.178882817213,1.05066388687,0.176654935881,0.0371005449158,0.295,0.45,1,1,2,111,0
0.27025514065,0.257602293591,1.01882522615,0.156376009124,0.319,0.45,3,2,-1,112,0
0.662136832466,1.00202228262,0.117989401733,0.161760893791,0.351,0.45,1,1,2,113,0
1.14224951331,0.26600304464,0.114157784428,0.102049968583,0.259,0.45,0,0,2,114,0
0.184792619657,0.205314117889,0.198378485277,1.25843830998,0.279,0.45,3,3,2,115,0
0.197875885772,0.216525339967,1.03316006969,0.0519366642167,0.323,0.45,2,2,2,116,0
1.23771593153,0.189704242748,0.112968240718,0.0943996460903,0.278,0.45,1,0,-1,117,0
0.166281020584,0.115062675539,1.10097473598,0.0965057353008,0.361,0.45,2,2,2,118,0
0.149788800874,0.107703738608,0.114411554169,1.25928246865,0.296,0.45,0,3,-1,119,0
0.229671240898,0.142159952938,0.131902624452,1.30335399771,0.301,0.45,2,3,-1,120,0
1.1561885719,0.194610822808,0.103629601516,0.0866632204931,0.387,0.45,1,0,-1,121,0
0.0463436521614,0.0537535406236,0.0583602338028,1.02085964547,0.39,0.45,3,3,2,122,0
1.07114055312,0.751824211633,0.0810016633378,0.131692651586,0.428,0.45,0,0,2,123,0
0.737515655565,1.11754708686,0.73963678258,0.107483880883,0.485,0.45,1,1,1,124,0
1.19452744942,0.154375921338,0.101677341109,0.213814765296,0.488,0.45,0,0,1,125,0
0.208457133897,0.125895731827,0.145701787827,1.08281753908,0.342,0.45,3,3,2,126,0
0.38935884795,1.00110619142,0.167331367917,0.102157112544,0.4,0.45,1,1,2,127,0
0.348514831548,0.228007570019,1.02568207858,0.11259103394,0.442,0.45,2,2,2,128,0
1.23938040393,0.15605895598,0.123782163342,0.0927805646958,0.318,0.45,0,0,2,129,0
0.232524223086,0.113484568239,1.0353307508,0.131728357565,0.386,0.45,2,2,2,130,0
0.228863995824,0.0628528805609,0.813482162139,1.66327003592,0.433,0.45,3,3,2,131,0
0.261807163237,0.0999167720729,1.15628648856,0.0996454377187,0.368,0.45,2,2,2,132,0
0.586435864043,1.04170210051,0.171581618711,0.0965195767405,0.451,0.45,1,1,1,133,0
0.1596898444,0.147387295032,0.165403739472,1.21472643031,0.408,0.45,3,3,2,134,0
1.23217898697,0.129789396199,0.172101210634,0.0627694959325,0.281,0.45,0,0,2,135,0
-0.00141026096504,0.252901759656,0.033706280304,0.0555409517671,0.7,0.45,1,-1,0,137,0
0.583449991395,1.13601640942,0.0115550250256,0.0991584250315,0.146,0.45,0,1,-1,137,0
0.275708317873,0.162006713695,0.101465450665,1.69316946416,0.349,0.45,3,3,2,138,0
0.137632919725,0.13535341347,1.08356101316,0.0945032374822,0.33,0.45,1,2,-1,139,0
0.250879425821,0.148432775603,1.01882598581,0.197093741306,0.446,0.45,2,2,2,140,0
1.02028145041,0.139345290849,0.140768395838,0.149218435126,0.282,0.45,0,0,2,141,0
0.166454758779,0.186004276691,0.167892999388,1.48097110552,0.285,0.45,2,3,-1,142,0
0.14333556224,0.144631272812,0.110142665412,1.19699722307,0.304,0.45,3,3,2,143,0
0.282725507296,0.226839895133,1.11191805823,0.345727305,0.453,0.45,2,2,1,144,0
0.0827479487734,0.28164364709,0.0658643200256,1.20209810726,0.457,0.45,3,3,1,145,0
1.77299554733,0.177224727183,0.154684132372,0.089801145094,0.341,0.45,0,0,2,146,0
0.945015432542,1.10878306394,0.206024686406,0.241188285587,0.357,0.45,1,1,2,147,0
0.0976678011156,0.222055248021,0.386539993515,1.11296138473,0.36,0.45,3,3,2,148,0
0.700143843277,1.18785896911,0.164525465235,0.0993615025001,0.422,0.45,1,1,2,149,0
1.32413384052,0.247974706802,0.13094341317,0.0412932928316,0.297,0.45,0,0,2,150,0
0.119531681658,0.280260136759,0.130353586246,1.058978653,0.359,0.45,3,3,2,151,0
0.210796983494,0.18487159091,1.08139451012,0.0908534160281,0.367,0.45,2,2,2,152,0
1.12663081294,0.658773871201,0.110593826543,0.207621578381,0.417,0.45,0,0,2,153,0
0.241709243514,0.0548191058965,1.12067311631,0.411752494299,0.37,0.45,2,2,2,154,0
1.34411439658,0.0943878749159,0.0858947695307,0.096324141248,0.286,0.45,1,0,-1,155,0
0.297669310161,0.0684955270553,1.10444417398,0.747078480915,0.473,0.45,2,2,1,156,0
1.64248009824,0.0310649501396,0.0995788216735,0.0730514586915,0.344,0.45,1,0,-1,157,0
0.0423453416848,0.0167429824242,0.159769894187,1.32577648424,0.455,0.45,3,3,1,158,0
1.21709141027,0.0972996775447,0.0800084874235,0.109055203711,0.363,0.45,0,0,2,159,0
0.230296209155,0.102646413837,1.0365944335,0.13129843005,0.343,0.45,3,2,-1,160,0
0.372400966781,1.06080714339,0.0764524043177,0.113512877651,0.413,0.45,1,1,2,161,0
1.35298208755,0.157846916025,0.037688043768,0.0929896849033,0.344,0.45,0,0,2,162,0
0.69747744674,1.01442130736,0.144758088742,0.159986794997,0.497,0.45,1,1,1,163,0
0.238750470821,0.114974488393,1.08782379098,0.171117387643,0.452,0.45,2,2,1,164,0
1.0928292369,0.0893673646495,0.0793010172896,0.104201567615,0.318,0.45,0,0,2,165,0
0.239558890112,0.147799967207,0.134301206552,1.57068317665,0.297,0.45,2,3,-1,166,0
0.735006034919,0.198316654772,0.121079786359,1.74065739808,0.444,0.45,3,3,2,167,0
0.279934609767,0.0941287172554,1.01762188169,0.0496492403292,0.425,0.45,2,2,2,168,0
0.149505256397,0.107454888951,0.0745317029868,1.43948361853,0.373,0.45,3,3,2,169,0
1.48175222351,0.16525957629,0.125623783272,0.0827329181205,0.327,0.45,0,0,2,170,0
0.821742134417,1.09734712452,0.0918645225692,0.107469444394,0.351,0.45,1,1,2,171,0
1.61870947738,0.191183106451,0.128986358811,0.168110188458,0.416,0.45,0,0,2,172,0
0.229962600778,0.162113643344,0.131548057272,1.21760421827,0.355,0.45,3,3,2,173,0
0.716690652515,1.05610129937,0.227599120135,0.150959616853,0.423,0.45,1,1,2,174,0
0.157907280976,0.12736277144,0.409170105815,1.55276793484,0.38,0.45,3,3,2,175,0
0.336943644221,0.19290884914,1.11745278267,0.198038188327,0.36,0.45,2,2,2,176,0
1.06925359793,0.0926051619941,0.0763410605545,0.0788576025552,0.316,0.45,1,0,-1,177,0
0.144088203504,0.0872562293573,1.14719969491,0.27028112503,0.417,0.45,2,2,2,178,0
1.3379100636,0.222760319965,0.0443770044313,0.117057686757,0.422,0.45,0,0,2,179,0
0.251256592207,0.127777784098,1.06450446518,0.171819869806,0.398,0.45,2,2,2,180,0
0.0903837123686,0.0639062351093,0.14117750256,1.16995242025,0.372,0.45,3,3,2,181,0
1.00094749032,0.988538079553,0.334374400835,0.170692771543,0.453,0.45,1,0,-1,182,0
1.53511630797,0.191139194621,0.0381835319354,0.145241582911,0.37,0.45,0,0,2,183,0
0.052272219248,0.118273684289,0.103049259666,1.3607177753,0.328,0.45,3,3,2,184,0
1.00985458132,0.199043302622,0.133052657474,0.128720111689,0.3,0.45,0,0,2,185,0
0.494306982694,1.1855179359,0.178084129724,0.129893458626,0.37,0.45,1,1,2,186,0
0.193274002082,0.112895052642,0.0985361849745,1.11046151616,0.316,0.45,3,3,2,187,0
0.262059001358,0.0904474591905,1.13385819675,0.0747010260242,0.37,0.45,2,2,2,188,0
1.13226491462,0.130275805557,0.0944680462682,0.0984508267431,0.292,0.45,0,0,2,189,0
0.434334253244,1.10377428558,0.123578673133,0.144299296251,0.327,0.45,2,1,-1,190,0
1.07943159943,0.049102877222,0.0893922415099,0.0458328455382,0.283,0.45,1,0,-1,191,0
0.663292319669,0.0808262366654,1.07026490808,0.155648076705,0.435,0.45,2,2,2,192,0
0.0818736996943,0.0523053989057,0.0960985304257,1.34853469975,0.257,0.45,1,3,-1,193,0
1.43170719475,0.164495203548,0.132044975714,0.0565980511809,0.414,0.45,0,0,2,194,0
0.14714670538,0.0980312316473,0.151766465207,1.39323404968,0.348,0.45,3,3,2,195,0
0.493610023545,1.12717284858,0.123814020513,0.0584700537414,0.397,0.45,1,1,2,196,0
0.0742179506177,0.144833491781,0.214351056125,1.5511522691,0.376,0.45,3,3,2,197,0
1.11541284732,0.17633850005,0.117028465505,-0.0289614518192,0.315,0.45,0,0,2,198,0
0.366363653056,0.191376225807,1.06563594078,0.166794826085,0.372,0.45,2,2,2,199,0
0.0969885698423,0.0415070340104,0.126000563892,1.45894201123,0.328,0.45,3,3,2,200,0
0.252639536968,1.09607604808,0.231031292125,0.182866107849,0.423,0.45,2,1,-1,201,0
1.47888063225,0.184502353761,0.150511254369,0.124734605885,0.412,0.45,0,0,2,202,0
0.539623956446,1.14477609071,0.166758244177,0.096238925967,0.44,0.45,1,1,2,203,0
0.363780398259,0.20548366466,1.10068387777,0.141387359845,0.427,0.45,2,2,2,204,0
1.28068976466,0.139306369418,0.066619254296,0.0699505066684,0.295,0.45,0,0,2,205,0
0.193489180084,0.168007999599,0.65187172618,1.53641995095,0.383,0.45,3,3,2,206,0
1.13518322531,0.195467184027,0.255419985785,0.00699162851869,0.374,0.45,1,0,-1,207,0
1.07211590069,0.167942655878,0.0926383532986,0.0863856295085,0.269,0.45,0,0,2,208,0
0.65565520103,1.10760241672,0.245026099498,0.447987443673,0.504,0.45,1,1,1,209,0
0.101688145247,0.0699896653508,0.102255690505,1.26919472839,0.422,0.45,3,3,2,210,0
0.310467818618,0.0791147801791,1.20112611117,0.150606190405,0.434,0.45,2,2,2,211,0
0.187816237997,0.0849365007483,0.260553193672,1.42203671375,0.41,0.45,3,3,2,212,0
1.24555643547,0.092417927697,0.147949284629,0.0730730721475,0.304,0.45,0,0,2,213,0
0.436106163904,0.449276959836,1.07738898551,0.403394340169,0.502,0.45,2,2,1,214,0
0.584980746626,1.07504213157,0.176040298436,0.0759139973922,0.434,0.45,1,1,2,215,0
0.213481930875,0.0759583980514,1.1752155044,0.110626555474,0.421,0.45,2,2,2,216,0
0.277884234552,1.05047406569,0.255473569147,0.106710343688,0.644,0.45,1,1,1,217,1
0.311117155571,0.190469444966,1.05675226734,0.0942405372703,0.483,0.45,2,2,1,218,1
0.139801332188,0.226456518855,0.221281087762,1.45596884104,0.355,0.45,3,3,2,219,1
1.1222635161,0.245103669903,0.139019925831,0.0468234030802,0.262,0.45,0,0,2,220,1
0.490254950567,0.609469267052,1.13410303066,0.26531826582,0.358,0.45,2,2,2,221,1
1.10007177754,0.32814242194,0.114516776861,0.0697001777893,0.272,0.45,0,0,2,222,1
0.182682385589,0.330594709863,0.293052133963,1.317982432,0.386,0.45,3,3,2,223,1
0.351587870715,0.208282482495,1.00193167397,0.062019105175,0.317,0.45,2,2,2,224,1
1.27124322557,0.376626217547,0.160439640617,0.0800335774814,0.325,0.45,1,0,-1,225,1
0.364105822159,0.0950215992576,0.14542028454,1.23042541892,0.383,0.45,3,3,2,226,1
1.41341393213,0.137051183253,0.132072385618,0.0463125588995,0.312,0.45,1,0,-1,227,1
1.06768169636,0.0625667632789,0.153748204794,0.0310193444059,0.378,0.45,0,0,2,228,1
0.582005693421,1.02821285647,0.137300317623,0.0516759831716,0.422,0.45,1,1,2,229,1
1.3078329764,0.186031265964,0.124177895634,0.0106109571388,0.303,0.45,0,0,2,230,1
0.436958574575,0.256870108011,1.12524763211,0.224749012649,0.441,0.45,2,2,2,231,1
0.189517391148,0.105855788644,0.112338525545,1.13258271568,0.354,0.45,3,3,2,232,1
0.183260109885,0.0703372506234,1.04010434484,0.726578531492,0.518,0.45,2,2,1,233,1
1.17519631034,0.173431550439,0.117461222575,0.0197302395973,0.378,0.45,0,0,2,234,1
0.14001053238,0.0643048214771,0.783678584654,1.24557192459,0.457,0.45,3,3,1,235,1
0.727599203277,1.34430818788,0.072566548908,0.0998934788609,0.478,0.45,1,1,1,236,1
0.212238749507,0.095037800922,1.0327418679,0.0610511570839,0.383,0.45,2,2,2,237,1
1.33935641296,0.285259535329,0.109437607802,0.0362721597551,0.406,0.45,1,0,-1,238,1
0.150500929214,0.114237033638,0.101496468305,1.15292796649,0.424,0.45,3,3,2,239,1
1.71451329162,0.200380005119,0.143241568441,0.193561827924,0.388,0.45,0,0,2,240,1
0.357199512464,1.10558734138,0.111789544899,0.0036364993862,0.374,0.45,1,1,2,241,1
1.3564646024,0.530898432863,0.109709181918,0.0598983605743,0.405,0.45,0,0,2,242,1
0.169427847749,0.0958184875937,0.154797562814,1.36858819235,0.341,0.45,3,3,2,243,1
0.204739507475,0.0898061003509,1.01263322492,0.100853793809,0.353,0.45,2,2,2,244,1
1.17982300441,0.0387632677191,0.152266553346,0.0395126266983,0.308,0.45,0,0,2,245,1
0.293368697731,0.0736421407817,1.08266534956,0.111400450631,0.377,0.45,2,2,2,246,1
0.0831021801583,0.0487081773138,0.622862798964,1.02325919378,0.431,0.45,3,3,2,247,1
0.446772930016,1.04000791263,0.382200296112,0.0632662553847,0.551,0.45,1,1,1,248,1
0.00893164070585,0.0526572992526,0.0356033419316,1.0395488687,0.469,0.45,3,3,1,249,1
1.12287345756,0.136212688443,0.0770307278323,0.032162137479,0.325,0.45,0,0,2,250,1
0.709008534784,1.12036642965,0.33466042938,0.0526082818364,0.42,0.45,1,1,2,251,1
0.166954641088,0.0538035144329,1.17362459423,0.0688595198082,0.425,0.45,2,2,2,252,1
1.26694798112,0.094179041533,0.148312913225,0.0433476936947,0.301,0.45,1,0,-1,253,1
0.273150601371,0.0973437762132,1.19735695612,0.143996806945,0.491,0.45,2,2,1,254,1
1.33830529434,0.150295430668,0.096577472677,0.0299465709016,0.418,0.45,0,0,2,255,1
0.166735033339,0.118511742901,0.12218088716,1.08602823877,0.344,0.45,3,3,2,256,1
0.167182000484,0.108108147303,1.07575272103,0.231684883493,0.445,0.45,2,2,2,257,1
0.0567204004498,0.139326587659,0.0824721728934,1.18426159838,0.454,0.45,3,3,1,258,1
1.22395781201,0.14583470792,0.159951108403,0.0664825250645,0.333,0.45,0,0,2,259,1
0.1729351095,1.23244994791,0.107291923286,0.0159790873038,0.32,0.45,1,1,2,260,1
0.26379116771,0.193739918467,0.145181662432,1.27383817936,0.372,0.45,3,3,2,261,1
0.462472347931,1.07142600822,0.259464621455,0.024893788236,0.404,0.45,1,1,2,262,1
1.16511737969,0.223602114595,0.0693607061181,0.0473326248146,0.362,0.45,0,0,2,263,1
0.318590256437,0.0946513994534,1.23960002619,0.062886078428,0.358,0.45,2,2,2,264,1
0.57687589587,1.33509907301,0.139040313242,0.136451050157,0.486,0.45,1,1,1,265,1
0.200115389846,0.106533948763,0.0863832631921,1.13715444815,0.458,0.45,3,3,1,266,1
1.53779648728,0.223307610279,0.182003393768,0.0610499684393,0.354,0.45,0,0,2,267,1
0.198747211827,0.087491241084,1.2209193594,0.0747255057571,0.349,0.45,2,2,2,268,1
0.353963010664,0.0756771966195,0.197855961979,1.0823231786,0.462,0.45,3,3,1,269,1
0.464271789731,0.145654572452,1.0954164365,0.0971520178942,0.448,0.45,2,2,2,270,1
1.18477387243,0.314621933722,0.133064172797,0.070331086579,0.493,0.45,0,0,1,271,1
0.19801976911,0.0998399938306,0.138231481733,1.0458827226,0.352,0.45,3,3,2,272,1
1.01317890869,0.270044076348,0.756774473939,-0.030536304347,0.415,0.45,1,0,-1,273,1
1.00994664403,0.0551246194343,0.03497855203,0.0877290684156,0.278,0.45,0,0,2,274,1
0.79341648093,1.01531074224,0.365489231539,0.0883628734126,0.475,0.45,1,1,1,275,1
0.30190226298,0.21180405326,0.248960576925,1.00558828201,0.377,0.45,2,3,-1,276,1
1.84220958526,0.0331693151818,0.0306450968328,0.0769922530357,0.33,0.45,1,0,-1,277,1
1.49055387603,0.163826669463,0.0745689929014,0.189935563694,0.434,0.45,0,0,2,278,1
0.0646801843254,0.076427042977,0.326899339491,1.09394534755,0.463,0.45,3,3,1,279,1
0.160192574329,0.191342352418,1.08749685319,0.0901936825294,0.352,0.45,2,2,2,280,1
0.098681041831,0.170894345696,0.242748413405,1.16052612642,0.53,0.45,3,3,1,281,1
1.053144764,0.202898415554,0.120598165255,0.0602543951799,0.369,0.45,0,0,2,282,1
0.212998558463,0.1405232446,1.07863523551,0.0539950199896,0.315,0.45,2,2,2,283,1
0.222152824931,1.21698757436,0.123333301582,0.0611689878068,0.319,0.45,1,1,2,284,1
0.646846278422,0.0769251551505,1.18702028131,0.121449984684,0.39,0.45,2,2,2,285,1
1.21450914976,0.0308723603683,0.168757410441,0.183510963897,0.366,0.45,0,0,2,286,1
1.27458442231,0.19101346205,0.756862888032,0.102134602363,0.411,0.45,1,0,-1,287,1
0.233075534071,0.154564207244,0.195735360861,1.35723126898,0.339,0.45,3,3,2,288,1
0.434352620886,1.02047692816,0.0897678864702,0.0349236972174,0.383,0.45,1,1,2,289,1
0.162425508809,0.101401704986,0.0398150366926,1.26496398553,0.416,0.45,3,3,2,290,1
0.209885141073,0.199845118041,1.04311765702,0.333254509817,0.448,0.45,2,2,2,291,1
1.05226912365,0.168099340898,0.129442113642,0.0981623158807,0.325,0.45,0,0,2,292,1
0.198868115947,0.321622005662,1.20065770846,0.747846023319,0.485,0.45,2,2,1,293,1
0.051698090475,0.117060956416,0.107776000932,1.07347544204,0.366,0.45,3,3,2,294,1
1.35718202407,0.249052687047,0.166875368369,0.055957776295,0.333,0.45,0,0,2,295,1
0.116241475002,1.16442831373,0.0965350287149,0.0488425563323,0.319,0.45,1,1,2,296,1
1.22224608636,0.134607662365,0.102213172824,0.112738452064,0.343,0.45,0,0,2,297,1
0.104141755216,0.0702086237915,0.431033512525,1.07206821913,0.349,0.45,3,3,2,298,1
0.725885570862,1.21206396274,0.146332467013,0.0994959949675,0.506,0.45,1,1,1,299,1
0.101554872277,0.0736562998921,1.10917678748,0.121240819045,0.488,0.45,2,2,1,300,1
1.42265268848,0.183379030458,0.123038747426,0.110621150535,0.377,0.45,1,0,-1,301,1
0.0677174152068,0.115762372569,0.109352621569,1.08204947011,0.384,0.45,3,3,2,302,1
1.61518123288,0.142747741962,0.111843694744,0.0718817396704,0.331,0.45,0,0,2,303,1
0.11414972136,0.0675662369082,0.220922530391,1.06897826037,0.369,0.45,2,3,-1,304,1
0.0855262505285,0.0273727882934,0.111329395409,1.22055757685,0.276,0.45,3,3,2,305,1
0.424438969394,0.0533987553802,1.01548342214,0.206481531448,0.334,0.45,2,2,2,306,1
1.07665393255,0.0285003461553,0.0926861121752,0.0392066224096,0.161,0.45,0,0,2,307,1
0.152052209813,0.0338833972431,0.160363876252,1.46881726181,0.298,0.45,3,3,2,308,1
0.485786868502,1.19119941331,0.11347670857,0.0624971932756,0.377,0.45,1,1,2,309,1
1.59112593704,0.0575499153611,0.0950032144622,0.0355831417596,0.356,0.45,0,0,2,310,1
0.444610470848,1.05660044876,0.638474330051,0.0495691665248,0.479,0.45,1,1,1,311,1
0.15042006066,0.124982130832,1.01653566786,0.0902337759144,0.355,0.45,2,2,2,312,1
1.3677101339,0.269684534532,0.0759383263698,0.0726603776432,0.345,0.45,1,0,-1,313,1
0.076220285068,0.128949503724,1.10876439957,0.216988246903,0.516,0.45,2,2,1,314,1
1.59595849911,0.0543802339578,0.0810723745308,0.118028734747,0.371,0.45,0,0,2,315,1
0.388841291816,0.139682974152,1.10722678499,0.289717292287,0.393,0.45,3,2,-1,316,1
1.64461405371,0.110562858347,0.091375908416,0.065014453813,0.48,0.45,0,0,1,317,1
0.180356901377,0.0923586223023,1.06015720991,0.226408486608,0.459,0.45,2,2,1,318,1
0.250713820281,0.0443336962803,0.236750256454,1.20919855372,0.435,0.45,3,3,2,319,1
0.101522381214,0.0318069621205,1.16581995828,0.171457881001,0.42,0.45,2,2,2,320,1
1.23337067512,0.0198453760587,0.096938404456,0.13681152456,0.31,0.45,1,0,-1,321,1
0.0625300788425,0.0152820887985,0.521844396943,1.04068749481,0.446,0.45,3,3,2,322,1
0.316299337861,1.01900810057,0.0503313143699,0.0856656355411,0.413,0.45,1,1,2,323,1
1.07773388408,0.0563999255215,0.0842951056537,0.0376700318327,0.27,0.45,0,0,2,324,1
0.112845269597,1.04137313977,0.106510231527,0.080069160188,0.315,0.45,1,1,2,325,1
0.881138911971,0.146432362821,0.122088660753,1.17646774147,0.378,0.45,3,3,2,326,1
0.0821869682204,0.0857983557146,1.22514385739,0.373824247774,0.443,0.45,2,2,2,327,1
1.38566967957,0.371363770454,0.0859840767763,0.0444535960505,0.404,0.45,0,0,2,328,1
0.0357494686772,0.0200377352263,0.0303526982833,1.48036373256,0.411,0.45,3,3,2,329,1
1.50040570908,0.0275078800424,0.191251495539,0.114011868061,0.401,0.45,0,0,2,330,1
0.238214546786,0.0616931505429,1.17038685905,0.140683923282,0.353,0.45,2,2,2,331,1
0.0603616363981,0.0714835616596,0.473107638773,1.41776344654,0.419,0.45,3,3,2,332,1
0.297633935629,1.21474320033,0.172434523602,0.172354898369,0.507,0.45,1,1,1,333,1
0.112619927477,0.0829856294787,0.117833195898,1.07057336853,0.496,0.45,2,3,-1,334,1
1.38185717844,0.0360765816745,0.153681910653,0.0868464204066,0.441,0.45,1,0,-1,335,1
1.19767808959,0.185848070655,0.154958140301,0.142443075608,0.348,0.45,0,0,2,336,1
0.0995853240906,1.07604551656,0.148377993215,0.129897490318,0.315,0.45,1,1,2,337,1
-0.00978981971176,0.104733977283,1.12828653024,0.121928798059,0.355,0.45,2,2,2,338,1
0.105226601696,0.0913162878589,0.228006780583,1.04351345232,0.381,0.45,3,3,2,339,1
1.35187777028,0.266888064365,0.0936450371689,0.125427458816,0.392,0.45,0,0,2,340,1
0.0544693680692,0.033949486323,1.0986675396,0.132752466818,0.373,0.45,2,2,2,341,1
1.51995736741,0.0359082021773,0.110423437071,0.138306669672,0.424,0.45,0,0,2,342,1
0.0979872588004,0.206477608445,0.418277264385,1.427775239,0.413,0.45,3,3,2,343,1
0.25715874429,0.148511332399,1.00809714783,0.170370653473,0.294,0.45,1,2,-1,344,1
1.69982284784,0.176741057221,0.0888142568187,0.140886171786,0.301,0.45,0,0,2,345,1
0.397894130014,1.20113795251,0.587523195343,0.119351799097,0.433,0.45,1,1,2,346,1
0.0961369358731,0.121653028271,0.212953685592,1.17282091157,0.35,0.45,3,3,2,347,1
0.333869191198,0.148664619648,1.26649987293,0.119755663648,0.36,0.45,2,2,2,348,1
0.25281369966,1.04942172818,0.146316391151,0.0696196055112,0.314,0.45,1,1,2,349,1
1.23363963297,0.101116219656,0.102132918809,0.0134920308308,0.141,0.45,3,0,-1,350,1
0.794407582403,0.0565688497526,1.00683763927,0.132953476822,0.448,0.45,2,2,2,351,1
1.04428919377,0.0686377024971,0.121420874008,0.0602884150211,0.324,0.45,0,0,2,352,1
0.0431367243104,0.0325411849011,1.14738030846,0.114565327988,0.368,0.45,3,2,-1,353,1
1.51024669655,0.0132840519729,0.0627073602704,0.101555644917,0.392,0.45,0,0,2,354,1
-0.0132822808233,0.0125162905648,1.25700810382,0.0893329904593,0.345,0.45,2,2,2,355,1
0.0383638641364,1.11559566183,0.162755739026,0.113944809339,0.278,0.45,1,1,2,356,1
0.380414103679,0.125899597935,1.02427024852,0.105617371527,0.359,0.45,2,2,2,357,1
0.0592522697508,0.0500636476954,0.129667985148,1.31256035154,0.388,0.45,3,3,2,358,1
0.0651056213078,1.1698589771,0.135449250587,0.112991691499,0.382,0.45,1,1,2,359,1
2.13457683653,0.172017418294,0.157974564893,0.0804316232223,0.415,0.45,0,0,2,360,1
0.470801924038,1.13190799536,0.162414563597,0.133395426511,0.43,0.45,1,1,2,361,1
1.00321721532,0.215968095227,0.158591353551,0.0940166873448,0.464,0.45,0,0,1,362,1
0.0719394450903,0.0931566151247,1.05508252662,0.0703441186858,0.441,0.45,2,2,2,363,1
0.0766958623934,0.0716477044394,0.186643495057,1.32907208486,0.359,0.45,3,3,2,364,1
1.37751144229,0.125637953723,0.11770170203,0.0361757165419,0.371,0.45,0,0,2,365,1
0.119249477323,0.0678316959591,0.517826432987,1.28237412636,0.427,0.45,3,3,2,366,1
0.235779468718,0.048513903261,1.07822243635,0.113871810326,0.374,0.45,2,2,2,367,1
1.46772718195,0.0180293672305,0.075068540554,0.0863447428718,0.467,0.45,0,0,1,368,1
0.13186948212,1.06096612312,0.0815598665368,0.0777282728015,0.383,0.45,1,1,2,369,1
-0.0166367557346,0.0319112858724,1.13413399371,0.140867613755,0.32,0.45,3,2,-1,370,1
0.0073263223217,1.08956434301,0.0220803967141,0.0352160902115,0.422,0.45,1,1,2,371,1
0.187263271481,0.0735978389391,1.00445295541,0.111257688535,0.392,0.45,2,2,2,372,1
0.204525127944,1.01432690408,0.110517595982,0.205670452754,0.443,0.45,1,1,2,373,1
-0.0193696915261,0.0391774379876,1.10092937942,0.730189389679,0.41,0.45,2,2,2,374,1
1.87775565712,0.0355094437433,0.074105455875,0.0910506084823,0.343,0.45,0,0,2,375,1
0.0506089436462,0.0392333870967,0.147698351489,1.47125864318,0.297,0.45,3,3,2,376,1
0.131296151541,0.118106240705,1.26423198747,0.292032222549,0.369,0.45,2,2,2,377,1
0.556561746477,0.258160120452,0.234891492015,1.22221899238,0.39,0.45,3,3,2,378,1
1.48709692092,0.16492094111,0.156493396278,0.105446848597,0.296,0.45,0,0,2,379,1
0.813972482651,1.12473685161,0.501358259518,0.110227489704,0.42,0.45,1,1,2,380,1
0.0417756120099,0.0399981832213,0.0327102564744,1.68018713367,0.344,0.45,3,3,2,381,1
0.365240684215,1.32365092288,0.105071404526,0.0627452800612,0.416,0.45,1,1,2,382,1
1.08115945528,0.242814909354,0.130415834564,0.123891762588,0.258,0.45,0,0,2,383,1
0.259546946499,0.121485749156,1.22434867948,0.251106809868,0.297,0.45,2,2,2,384,1
0.129041841752,1.15566270342,0.146293535524,0.148333465577,0.327,0.45,1,1,2,385,1
0.11273384955,0.137776833746,0.108211834252,1.01569522412,0.28,0.45,2,3,-1,386,1
1.26610069228,0.141553017719,0.0878811082103,0.0630508322682,0.382,0.45,0,0,2,387,1
0.056193356959,0.105172760325,0.131067858463,1.75501102908,0.305,0.45,3,3,2,388,1
0.0949403602159,0.242364917465,1.10801267919,0.119156060602,0.371,0.45,2,2,2,389,1
0.0736842967913,0.122881758912,0.15569119783,1.06561725018,0.404,0.45,3,3,2,390,1
1.06944227901,0.239315376896,0.14368391563,0.00123192368534,0.324,0.45,0,0,2,391,1
0.67217157353,1.0431698661,0.74879593628,0.113863762912,0.374,0.45,1,1,2,392,1
1.49211390165,0.249775287133,0.0256532979376,0.178047394015,0.294,0.45,0,0,2,393,1
0.256447614116,0.181206256801,1.27210731912,0.246921188144,0.325,0.45,2,2,2,394,1
0.500349381375,1.19879739875,0.17204575693,0.563578262807,0.47,0.45,1,1,1,395,1
0.184434475938,0.0412866488003,0.103945664865,1.20433613138,0.387,0.45,3,3,2,396,1
1.09345131251,1.12760617438,0.109563025132,0.0368769333049,0.433,0.45,1,1,2,397,1
1.30792226666,0.170875589824,0.151779224767,0.155989679013,0.384,0.45,0,0,2,398,1
0.225346245183,0.155111404323,1.0483049638,0.157001916539,0.34,0.45,2,2,2,399,1
0.0611072881165,0.107244735172,0.123347261263,1.10935665444,0.311,0.45,3,3,2,400,1
1.29150281714,0.233572258318,0.139117468241,0.0367825676763,0.361,0.45,0,0,2,401,1
0.0398373753063,0.0495940115029,1.22037865801,0.196297546071,0.369,0.45,3,2,-1,402,1
1.09529797351,0.0196710849034,0.0317920844232,0.0691844893402,0.354,0.45,2,0,-1,403,1
0.222879990815,1.13157873109,0.598878049281,0.00986246944127,0.559,0.45,1,1,1,404,1
0.019618649426,0.0349306865326,1.28448536393,0.103084737227,0.418,0.45,2,2,2,405,1
1.19057476,0.25983836945,0.242206792941,0.200962039932,0.326,0.45,0,0,2,406,1
0.600999236703,1.00428850862,0.419874022283,0.156186660932,0.441,0.45,1,1,2,407,1
0.0706378804222,0.517590509415,0.80602796904,1.19218464704,0.41,0.45,3,3,2,408,1
0.0477849245954,0.0306307301639,1.02686744308,0.097898773833,0.343,0.45,1,2,-1,409,1
1.64843129437,0.262764588929,0.0893374932142,0.284381337389,0.393,0.45,0,0,2,410,1
0.00814208601104,0.0684132147782,0.171995396481,1.09266982745,0.4,0.45,2,3,-1,411,1
0.00576029190779,0.0325601051348,0.146440010296,1.15009465918,0.495,0.45,3,3,1,412,1
1.26235105063,0.0991664262946,0.150924202991,0.0125584849401,0.4,0.45,0,0,2,413,1
0.0800222008733,0.0600086353804,1.12077362893,0.148551947883,0.382,0.45,3,2,-1,414,1
0.268776312107,0.0899163043602,1.20030985957,0.0236883551674,0.469,0.45,2,2,1,415,1
1.00538240857,0.154539799466,0.10838966766,0.102553753098,0.412,0.45,0,0,2,416,1
0.195187032882,1.05217788602,0.104261753737,0.0244381067226,0.37,0.45,1,1,2,417,1
0.0226351149989,0.129811970077,0.450818815092,1.40411660976,0.392,0.45,3,3,2,418,1
0.600890444993,1.09315546544,0.453115306683,0.0773533437278,0.438,0.45,1,1,2,419,1
0.197983145286,0.0636365368402,1.17076917101,0.158515912555,0.408,0.45,2,2,2,420,1
1.15236168183,0.0878360694822,0.114206718606,0.100168782395,0.323,0.45,1,0,-1,421,1
2.09968139679,0.231971112653,0.204676822981,0.214700818029,0.384,0.45,0,0,2,422,1
0.3463408929,1.19326406604,0.213230329696,0.235543050716,0.465,0.45,2,1,-1,423,1
0.197477829748,0.0841687930485,0.92343032577,1.26327420168,0.448,0.45,3,3,2,424,1
0.304141782039,0.0994330022248,1.03331050558,0.138497181475,0.375,0.45,2,2,2,425,1
1.78708491808,0.167085639723,0.161936660535,0.145568671513,0.324,0.45,0,0,2,426,1
0.149886762218,0.248682469364,0.177135128721,1.28911009136,0.403,0.45,3,3,2,427,1
0.542700398222,1.06733740822,0.422923045495,0.101650197134,0.408,0.45,1,1,2,428,1
0.288623229454,0.195919000542,0.0939934385702,1.35708498329,0.441,0.45,3,3,2,429,1
1.81193236215,0.281074323101,0.158778205156,0.0896955913655,0.396,0.45,0,0,2,430,1
0.18066921256,1.06384620695,0.125515993867,0.103962997938,0.404,0.45,1,1,2,431,1
0.212081773698,0.166693869676,1.19052592261,0.0956878629552,0.396,0.45,2,2,2,432,1
0.685740337455,1.03471160167,0.141408521474,0.188870660502,0.446,0.45,1,1,2,433,1
0.0383394059198,0.149088373896,0.166557958222,0.523297723639,0.7,0.45,3,-1,0,435,2
0.00456200888798,0.128896780599,0.148972043625,1.01596322182,0.0540000000001,0.45,1,3,-1,435,2
0.234232555973,0.162587205716,1.00121455012,0.632239624474,0.534,0.45,2,2,1,436,2
1.07682468476,0.160305117448,0.170470089493,0.0407789481717,0.342,0.45,0,0,2,437,2
0.325546281825,0.157333921371,1.05656759411,0.116261294498,0.354,0.45,2,2,2,438,2
0.414978893473,1.11315951655,0.153396753504,0.0831059141565,0.369,0.45,1,1,2,439,2
1.44199807858,0.208138673864,0.170404973942,0.108482621835,0.332,0.45,0,0,2,440,2
0.209953390415,0.181829173996,0.181460571126,1.41092307517,0.294,0.45,3,3,2,441,2
0.22257600354,0.162457176807,1.10237532596,0.230605152049,0.387,0.45,2,2,2,442,2
0.161153444083,0.143136661636,0.106992774867,0.156952832964,0.7,0.45,3,-1,0,444,2
1.3223422553,0.173154509512,0.148751202358,0.170475643486,0.394,0.45,0,0,2,444,2
0.420260189483,1.02812441425,0.358820067249,0.180895107098,0.507,0.45,1,1,1,445,2
0.346103897326,0.132846427944,1.13041320109,0.716987667769,0.508,0.45,3,2,-1,446,2
0.483518303642,1.06549542961,0.136759530222,0.0142792076224,0.475,0.45,1,1,1,447,2
0.264645750945,0.154333458722,1.03086299338,0.238995650984,0.466,0.45,2,2,1,448,2
1.21565547146,0.131554483905,0.141420320931,0.0529888642509,0.365,0.45,0,0,2,449,2
0.318314710009,0.194846181428,1.03047383455,0.114634347891,0.428,0.45,2,2,2,450,2
1.37291423979,0.169733917446,0.103088856391,0.118663658605,0.398,0.45,1,0,-1,451,2
1.20787014083,0.157764136643,0.136875997733,0.10465115347,0.368,0.45,0,0,2,452,2
0.266969966539,0.135720583789,0.16330209751,1.43936402408,0.278,0.45,3,3,2,453,2
0.33133878481,0.142411624465,1.01459761843,0.17843036897,0.325,0.45,2,2,2,454,2
0.0799857063704,0.240459708947,0.150645884058,1.21854624692,0.453,0.45,3,3,1,455,2
1.24960027027,0.229213221857,0.180427101106,0.0872561726619,0.35,0.45,0,0,2,456,2
0.682216874627,1.03386931716,0.268537926854,0.196013412914,0.412,0.45,1,1,2,457,2
0.0822711090201,0.113843354681,0.370862961631,1.06575099955,0.407,0.45,3,3,2,458,2
0.364623337746,0.198241184853,1.09046315065,0.345058318614,0.361,0.45,2,2,2,459,2
0.403686045322,1.01676715383,0.141813209526,0.069088184334,0.375,0.45,1,1,2,460,2
1.23666293442,0.168976631998,0.126394959006,0.0990827429581,0.298,0.45,0,0,2,461,2
0.32726312256,0.156379198122,1.14401558257,0.189644297328,0.384,0.45,2,2,2,462,2
1.39540331552,0.238320437595,0.277514412375,0.176155648872,0.474,0.45,0,0,1,463,2
0.124596326015,0.259089060178,0.140905663133,0.0883023918474,0.7,0.45,1,-1,0,465,2
0.13795433476,0.052734827855,0.0582364659666,1.0143136795,0.406,0.45,3,3,2,465,2
1.34634326662,0.331883455818,0.0947746450378,0.0649191264769,0.401,0.45,0,0,2,466,2
0.0846460048735,0.0629659542175,0.0853175559934,1.22013873313,0.358,0.45,3,3,2,467,2
0.833731653961,1.21293403878,0.109820480589,0.0815051433682,0.445,0.45,1,1,2,468,2
0.181542612028,0.0668050529122,0.0427994744018,1.2685108921,0.422,0.45,2,3,-1,469,2
0.0626032098464,0.0413696439826,0.0601541485018,1.14480056894,0.672,0.45,3,3,1,470,2
1.44373073637,0.140184812162,0.109930166224,0.00218528974942,0.452,0.45,0,0,1,471,2
0.148865581268,1.09868146555,0.0522702812118,0.0302367356279,0.399,0.45,1,1,2,472,2
0.146961809419,0.0873726066844,1.08847639943,0.124212737994,0.331,0.45,2,2,2,473,2
1.05200851047,0.184397376692,0.0718223767611,0.0671829940622,0.318,0.45,0,0,2,474,2
0.281663119115,0.148822377602,1.05659905832,0.192641748695,0.419,0.45,2,2,2,475,2
1.02209329757,0.123256496651,0.106780517734,0.0745039971358,0.3,0.45,1,0,-1,476,2
1.16737162212,0.0638875829288,0.141079172073,0.168285484998,0.303,0.45,0,0,2,477,2
0.0393461905322,0.0289527675237,0.198394972035,1.56738084514,0.366,0.45,3,3,2,478,2
0.455780261292,1.13404103943,0.400470766738,0.0686355014103,0.463,0.45,1,1,1,479,2
0.0572309923598,0.0929401358199,0.0615947740527,1.0535907291,0.399,0.45,3,3,2,480,2
0.2066763756,0.0654516609575,1.08661658448,0.0551306272863,0.36,0.45,2,2,2,481,2
0.32012685876,0.183239516473,0.181343717082,1.30348604626,0.513,0.45,3,3,1,482,2
1.45279363749,0.159171747997,0.0916852200696,0.004287078542,0.371,0.45,0,0,2,483,2
0.37887308922,1.08152023231,0.141265107681,0.0270372186867,0.346,0.45,1,1,2,484,2
0.165902044628,0.0585721502079,1.02060301687,0.12804253677,0.395,0.45,2,2,2,485,2
1.31538816178,0.151639556911,0.138913789877,0.0488010506078,0.367,0.45,0,0,2,486,2
0.229772744455,0.0837654004481,1.18300680854,0.0814669553697,0.342,0.45,2,2,2,487,2
1.39166678352,0.139055530748,0.422350428431,0.0909661090879,0.384,0.45,1,0,-1,488,2
0.0532962475363,0.0215182739997,0.515013406279,1.1196289308,0.424,0.45,3,3,2,489,2
0.0813680135954,0.0486911839642,1.16445671595,0.199958249557,0.504,0.45,2,2,1,490,2
0.019543745173,0.0354925085632,0.0867158371331,1.06548267822,0.491,0.45,3,3,1,491,2
0.107587677477,1.24531244659,0.0825742082695,0.0898116837431,0.436,0.45,1,1,2,492,2
1.71589592068,0.111823707255,0.0371253642087,0.0541097487021,0.35,0.45,0,0,2,493,2
0.144110352838,0.0993848717986,1.01911564275,0.207630755094,0.355,0.45,3,2,-1,494,2
0.178936204348,0.219458438567,1.08426552524,0.134121003937,0.468,0.45,2,2,1,495,2
0.135916486401,1.00061403319,0.451198524854,0.0826899183322,0.455,0.45,1,1,1,496,2
1.37562241075,0.110657506843,0.0226249368814,0.0632027155917,0.325,0.45,0,0,2,497,2
0.320043576703,1.03229170844,0.200447526736,0.0746792920239,0.382,0.45,2,1,-1,498,2
1.18128860799,0.0419948256131,0.117812478329,0.0606989754952,0.384,0.45,0,0,2,499,2
0.196319584965,1.11300702338,0.226710385524,0.032160992573,0.529,0.45,1,1,1,500,2
0.104938386768,0.0952658580012,0.0189544134404,1.3177435577,0.402,0.45,3,3,2,501,2
0.310496424873,1.12472029845,0.0892605257458,-0.0072386145422,0.435,0.45,1,1,2,502,2
0.145317708813,0.134158179069,1.07966320252,0.192917244148,0.536,0.45,2,2,1,503,2
0.0576070754931,0.1652801222,0.106369409288,1.41851591196,0.472,0.45,3,3,1,504,2
1.08802951398,0.217783263734,0.164080218323,0.0648633827378,0.366,0.45,0,0,2,505,2
0.042986340089,0.116569200646,0.426353249934,1.25973557452,0.463,0.45,3,3,1,506,2
0.262438827948,0.130707749399,1.14622955642,0.0878512409434,0.354,0.45,2,2,2,507,2
1.33920499546,0.622881880259,0.0829202117198,0.0988029301796,0.417,0.45,0,0,2,508,2
0.310070914382,1.12077171195,0.124969417089,0.0945758893982,0.383,0.45,1,1,2,509,2
1.30906148971,0.079544136333,0.15743958472,0.122513016125,0.342,0.45,0,0,2,510,2
0.38684832802,0.153618548974,1.12115769546,0.162440897948,0.352,0.45,2,2,2,511,2
0.586875448596,1.08426596617,0.132327430965,0.0633631276861,0.395,0.45,1,1,2,512,2
0.339487952895,0.0881186819874,0.149317213053,1.08255505876,0.43,0.45,3,3,2,513,2
1.44540771518,0.142859898758,0.099991923548,0.0330735062629,0.426,0.45,0,0,2,514,2
0.125825178926,0.0872656743555,0.150907466455,1.21421321868,0.418,0.45,3,3,2,515,2
0.33028027039,1.16705577177,0.111996456856,-0.0261052860472,0.429,0.45,1,1,2,516,2
0.22982969678,0.0644888246381,1.07008724236,0.194140022521,0.382,0.45,2,2,2,517,2
0.199771596909,0.0802713014838,0.356705429024,1.20769282322,0.415,0.45,3,3,2,518,2
1.03042650247,0.158650635796,0.163313900436,0.0975175176122,0.316,0.45,1,0,-1,519,2
0.118375354304,0.0364229328145,1.33055162155,0.322767244392,0.476,0.45,2,2,1,520,2
1.47968438957,0.344204907421,0.210005331759,0.0406512535918,0.335,0.45,0,0,2,521,2
0.258790905874,0.151885691877,1.19868158756,0.105660720553,0.378,0.45,2,2,2,522,2
0.276316631055,1.17786388241,0.645091771531,0.0827484109463,0.409,0.45,1,1,2,523,2
1.54939053956,0.218045156732,0.0596232820169,0.270653269783,0.313,0.45,0,0,2,524,2
0.0632390650141,0.0879397113292,0.613974866964,1.433212332,0.381,0.45,3,3,2,525,2
1.26562734781,0.142556398318,0.0642340911147,0.0661129154804,0.376,0.45,0,0,2,526,2
0.174731375964,1.21989606385,0.062230512926,0.0185811021019,0.411,0.45,1,1,2,527,2
0.114680581995,0.0843109153821,0.310803024039,1.31320122545,0.408,0.45,3,3,2,528,2
0.0765413941336,0.128361683535,1.12698083924,0.134364351885,0.349,0.45,2,2,2,529,2
0.144999958428,0.152975911647,0.167434456615,1.01788682365,0.35,0.45,3,3,2,530,2
1.20254381784,0.26543108671,0.135846926073,0.113534689188,0.306,0.45,0,0,2,531,2
0.276820999801,1.09325132713,0.119632189906,0.0847293061238,0.34,0.45,1,1,2,532,2
0.17545224257,0.145396843325,1.01394245026,0.0962051004468,0.317,0.45,2,2,2,533,2
1.28423235474,0.136306106305,0.0918305220753,0.108216848133,0.374,0.45,1,0,-1,534,2
1.83590782616,0.0184073148534,0.137858053243,0.182084435388,0.39,0.45,0,0,2,535,2
0.07410107352,0.0993809892238,1.01174393661,0.109992470796,0.384,0.45,2,2,2,536,2
0.0665248099216,0.0864378768776,0.256675588098,1.20318334993,0.345,0.45,3,3,2,537,2
0.226017510081,1.07742800054,0.0650836511859,0.0715537804554,0.361,0.45,1,1,2,538,2
0.391462813039,0.177282908007,0.138494403873,1.13816039126,0.399,0.45,3,3,2,539,2
0.0803804818664,0.268880915197,1.05052369813,0.165876627796,0.564,0.45,2,2,1,540,2
1.66015317253,0.129875555175,0.131551275422,0.13143778261,0.418,0.45,0,0,2,541,2
0.0737723532574,0.0772272813209,0.333172013486,1.36170339129,0.449,0.45,3,3,2,542,2
1.19518486289,0.46297442924,0.117321605125,0.146653737565,0.443,0.45,0,0,2,543,2
0.229652154541,1.18102173223,0.160375152849,0.0869445717489,0.439,0.45,1,1,2,544,2
0.280550719533,0.0668633167033,1.03435669293,0.135305186977,0.359,0.45,2,2,2,545,2
1.39097142651,0.129564726447,0.147951974012,0.101528672471,0.36,0.45,1,0,-1,546,2
1.12820300697,0.0144283080923,0.153577861303,0.0899527531463,0.373,0.45,0,0,2,547,2
0.0126051371167,0.0170242251601,1.13763894446,0.182834377872,0.387,0.45,2,2,2,548,2
1.11378497135,0.182316921462,0.187734591699,0.0894590420676,0.375,0.45,0,0,2,549,2
0.150352509234,0.102698421528,0.210257084986,1.22951587498,0.33,0.45,3,3,2,550,2
0.229085398413,1.18582747155,0.207493019629,0.0518243887341,0.322,0.45,1,1,2,551,2
0.0672519097697,0.190910493557,0.176243004602,1.17168184228,0.372,0.45,3,3,2,552,2
0.137086310725,0.316343398875,1.16104324503,0.386256911361,0.509,0.45,2,2,1,553,2
0.0256083781688,0.0586100010987,0.0737444782445,1.29384136084,0.504,0.45,3,3,1,554,2
0.091192318409,0.160245358676,1.05876628327,0.198674857939,0.534,0.45,2,2,1,555,2
1.16817351677,0.0972298841444,0.0764937297648,0.108616203848,0.393,0.45,0,0,2,556,2
0.249656551709,1.02709896229,0.115644506202,0.0780503815153,0.324,0.45,1,1,2,557,2
0.288987319641,0.167652155198,1.16447507753,0.170990859086,0.374,0.45,2,2,2,558,2
0.354408760659,1.02228652549,0.130102249872,0.11683102847,0.366,0.45,1,1,2,559,2
1.54324816151,0.14407978656,0.143725838823,0.0926306700173,0.246,0.45,0,0,2,560,2
0.16285759403,0.207507794902,0.203037249483,1.01190860538,0.331,0.45,3,3,2,561,2
1.12322165033,0.405491610285,0.213980781501,0.199197557272,0.364,0.45,0,0,2,562,2
0.13198196896,0.0915709568388,1.20150882043,0.383782169772,0.383,0.45,2,2,2,563,2
0.215810741013,0.13675780501,0.172574477999,1.00799307885,0.422,0.45,3,3,2,564,2
1.0663396287,0.110700605232,0.110671128465,0.0213847662755,0.325,0.45,1,0,-1,565,2
0.0121056906389,0.00790644911775,0.0331744603644,1.27892324461,0.453,0.45,3,3,1,566,2
0.11066396997,0.551680814303,1.00124788163,0.348543471871,0.515,0.45,2,2,1,567,2
1.11015940876,0.131470811438,0.11807640992,0.118127997259,0.366,0.45,0,0,2,568,2
0.0691769622041,1.1642300851,0.0737976927907,0.0529611525246,0.331,0.45,1,1,2,569,2
1.2347610094,0.213867590538,0.224435188758,0.104032860666,0.471,0.45,0,0,1,570,2
0.17574036339,0.171165983967,1.03946588254,0.0793631095719,0.419,0.45,2,2,2,571,2
1.08124539096,0.174303727511,0.163206670671,0.0670864780437,0.314,0.45,1,0,-1,572,2
0.0277599239741,0.0380935261253,0.0972537944319,1.35748182742,0.424,0.45,3,3,2,573,2
1.22936342652,0.507167902622,0.18223244949,0.100027493954,0.413,0.45,0,0,2,574,2
0.0509957735141,0.0561028213239,0.188505629709,1.11656404122,0.424,0.45,3,3,2,575,2
1.5538192411,0.284603418799,0.203635578357,0.0718896147108,0.322,0.45,1,0,-1,576,2
0.0801159169589,0.158272396794,1.01681549855,0.16901619765,0.431,0.45,2,2,2,577,2
-0.000310046471207,0.0723218112869,0.550151142958,1.19989897758,0.477,0.45,3,3,1,578,2
1.05326429872,0.113293229154,0.0713395546171,0.0863447897173,0.35,0.45,0,0,2,579,2
0.101058071506,1.2764815143,0.194537845165,0.147707555386,0.323,0.45,1,1,2,580,2
0.00355686130199,0.168457389652,0.167575981553,1.31766655415,0.331,0.45,2,3,-1,581,2
1.36742717216,0.399480543328,0.234250525261,0.194493257235,0.446,0.45,1,0,-1,582,2
1.3877907451,0.219754786676,0.137506995634,0.132700942916,0.338,0.45,0,0,2,583,2
0.199693608411,0.18024732763,1.00882242142,0.167379776666,0.323,0.45,2,2,2,584,2
1.24008330335,0.379059472854,0.184134923562,0.133590819943,0.499,0.45,0,0,1,585,2
0.0637268199182,0.310124024505,0.205656774951,1.00781112305,0.464,0.45,3,3,1,586,2
0.352929513053,0.180656727671,1.09036404956,0.1439752891,0.375,0.45,2,2,2,587,2
0.0936809815947,0.237294927078,0.211365838573,1.17945565568,0.526,0.45,3,3,1,588,2
0.274203178303,1.18763587946,0.214577740558,-0.00659144361259,0.457,0.45,1,1,1,589,2
0.0616379634126,0.149602603743,0.152883492024,1.22627004525,0.386,0.45,3,3,2,590,2
1.16540073864,0.239614582458,0.220489314257,-0.00708699085911,0.296,0.45,0,0,2,591,2
0.338945946684,1.16318118034,0.175960592763,0.0727130585278,0.318,0.45,1,1,2,592,2
0.298584494178,0.338218119697,1.08251798789,0.0495770346454,0.33,0.45,2,2,2,593,2
0.117569151047,0.20293274182,0.169514486872,1.03451985348,0.25,0.45,0,3,-1,594,2
0.201964257832,0.246516214208,0.301989995295,1.05675318576,0.329,0.45,2,3,-1,595,2
1.46249671686,0.241739533376,0.27243237474,0.107206162808,0.516,0.45,1,0,-1,596,2
-0.0173366168845,0.0367711891515,0.122836966014,1.23147368865,0.405,0.45,3,3,2,597,2
0.0501418097568,1.16927914288,0.170408474614,0.0376405713192,0.392,0.45,1,1,2,598,2
1.16764513345,0.20749623572,0.199694295064,0.0599390420834,0.321,0.45,0,0,2,599,2
0.0776346261921,0.0796960859497,0.165292447911,0.0581217386278,0.7,0.45,3,-1,0,601,2
0.268024360761,0.156975350455,1.23594571633,0.0968136907779,0.508,0.45,2,2,1,601,2
0.145439871081,0.163750251572,0.0915030027242,1.12728754545,0.46,0.45,3,3,1,602,2
0.212798803919,0.196917350054,1.1499912336,0.0789453809782,0.413,0.45,2,2,2,603,2
1.25624347215,0.174341513856,0.2046658874,0.131411085425,0.403,0.45,0,0,2,604,2
0.842034908459,1.11678864876,0.126224495839,0.0195977863497,0.452,0.45,1,1,1,605,2
0.0134184442412,0.134559471192,1.04183948185,0.056769805504,0.406,0.45,2,2,2,606,2
0.123154469703,1.03533332507,0.0757228041511,0.0765032945721,0.354,0.45,1,1,2,607,2
1.58726745902,0.145103491468,0.118653963622,0.0468514886321,0.285,0.45,0,0,2,608,2
0.427524468535,0.334939265038,0.261469025269,1.20095380453,0.316,0.45,2,3,-1,609,2
0.122682427084,0.0784761449982,0.53382573113,1.26464364901,0.455,0.45,3,3,1,610,2
1.27541180552,0.172679528791,0.169351369769,0.00241993211268,0.366,0.45,1,0,-1,611,2
0.100424651652,0.0231060231782,0.06990995228,1.15798291796,0.495,0.45,3,3,1,612,2
1.0164524846,0.154684233988,0.0923525680475,0.00891117784923,0.352,0.45,0,0,2,613,2
0.317525858392,0.126782629414,1.0029848004,0.1265353249,0.354,0.45,3,2,-1,614,2
1.05132091597,0.271654900016,0.0787420019868,0.0489063982104,0.534,0.45,0,0,1,615,2
0.040848015443,0.0154528410133,1.18284492556,0.0664034547799,0.437,0.45,2,2,2,616,2
0.0313150125207,1.13962220085,0.0427884484922,0.0548996611502,0.361,0.45,1,1,2,617,2
1.15347358697,0.238958844616,0.150224709912,0.0340406047778,0.347,0.45,0,0,2,618,2
0.424533713949,1.02343625627,0.479455873575,0.0717930534403,0.559,0.45,1,1,1,619,2
0.0363635985608,0.812937377785,1.16377719461,0.190068869002,0.477,0.45,2,2,1,620,2
1.54706007856,0.0210298527946,0.275746803878,0.117112344473,0.423,0.45,0,0,2,621,2
0.160426422859,0.0746300828686,0.158209530362,1.02425142211,0.369,0.45,3,3,2,622,2
0.688688340151,1.29887498,0.101301009772,0.081897593448,0.469,0.45,1,1,1,623,2
0.105792855672,0.0637884020746,0.336035377323,1.44747773874,0.422,0.45,3,3,2,624,2
0.239511057007,0.119387338194,1.01653210778,0.0518915642773,0.345,0.45,2,2,2,625,2
0.148681029556,0.222511570136,0.0876838329114,1.15707197416,0.445,0.45,3,3,2,626,2
0.133104167557,0.262425764918,0.231568593892,1.0630526356,0.495,0.45,2,3,-1,627,2
1.34737068806,0.122468466232,0.051597164739,-0.00807833305497,0.408,0.45,0,0,2,628,2
0.133689152787,1.23879400498,0.132145376171,0.0226628319622,0.411,0.45,1,1,2,629,2
1.46465707695,0.149779899259,0.197481511604,0.0381933261746,0.613,0.45,0,0,1,630,2
0.0131428840547,0.0691653861945,1.07875417221,0.0392765888025,0.447,0.45,2,2,2,631,2
1.13740522096,0.0905351257731,0.218664520503,0.112343194176,0.441,0.45,1,0,-1,632,2
0.0335934418197,0.00617948681388,1.01149810131,0.123234987761,0.413,0.45,2,2,2,633,2
0.0788154312911,0.0987116383843,0.742947883582,1.02743592615,0.572,0.45,3,3,1,634,2
0.12519349951,1.18800682043,0.0645815871283,0.0111078289644,0.469,0.45,1,1,1,635,2
0.224273445004,0.054485860131,0.0992023559472,1.05042698841,0.436,0.45,3,3,2,636,2
1.29495077345,0.151736123274,0.165631803007,0.0648193087494,0.464,0.45,0,0,1,637,2
0.0935305021101,0.123833643429,0.212882737684,1.08064850017,0.512,0.45,3,3,1,638,2
0.18585796026,0.150275983386,1.10964913579,-0.00988907588097,0.389,0.45,2,2,2,639,2
1.1271518844,0.518893158678,0.0963685190481,0.0646694378229,0.394,0.45,0,0,2,640,2
0.140399490598,1.17065749343,0.166703102687,0.00152373336669,0.483,0.45,1,1,1,641,2
1.054824147,-0.0152002071194,0.21136140841,0.0298573553743,0.471,0.45,0,0,1,642,2
0.205850887477,0.00681495388267,1.10791483837,0.0848417136848,0.381,0.45,2,2,2,643,2
1.00682460083,0.0941696785334,0.133973597767,0.0674628319804,0.372,0.45,1,0,-1,644,2
0.162904736479,0.0707104466787,1.00757819559,0.0516308736398,0.357,0.45,2,2,2,645,2
0.126315220453,0.0890643288945,0.195758370362,0.198823729562,0.7,0.45,3,-1,0,647,2
0.362482856006,1.09726417772,0.155519023771,0.0204585456127,0.368,0.45,1,1,2,647,2
0.232927973793,0.0474763245185,0.0702055377641,1.31598961737,0.415,0.45,3,3,2,648,2
0.126784566977,1.12526909712,0.0379034029179,0.0226056769654,0.183,0.45,0,1,-1,649,2
-0.00947433539452,0.286742649781,0.0477175107185,1.33217066503,0.461,0.45,3,3,1,650,2
0.227765255878,0.100917750018,0.971181708609,0.166557505002,0.7,0.45,2,-1,0,652,3
0.253073477107,0.113920875741,1.08607895736,0.202142768261,0.0200000000002,0.45,0,2,-1,652,3
0.0149017723764,0.172912615278,0.227772370733,1.04025999941,0.381,0.45,3,3,2,653,3
0.0705972800886,1.20598286025,0.18406158578,0.0896433220291,0.334,0.45,1,1,2,654,3
1.56078871083,0.178435523357,0.21122249193,0.129110175025,0.343,0.45,3,0,-1,655,3
1.19318230247,0.172525570674,0.163289027989,0.0787246067217,0.311,0.45,0,0,2,656,3
0.242380434283,1.14968220718,0.265592453917,0.0806615053037,0.377,0.45,1,1,2,657,3
0.106324001497,0.140917982229,0.165557400573,0.0633736736699,0.7,0.45,2,-1,0,659,3
1.08863830684,0.195262749536,0.0882508803521,0.0638711413452,0.24,0.45,3,0,-1,659,3
0.0924965473368,0.116425534609,0.417455152794,0.129988014511,0.7,0.45,2,-1,0,661,3
0.0361806610315,1.11854578983,0.0477589189289,0.0521975370962,0.356,0.45,1,1,2,661,3
1.01454007771,0.250065389347,0.0690023467213,0.0626344968671,0.304,0.45,0,0,2,662,3
0.0552979422052,0.525228951645,1.13350349916,0.145641591979,0.351,0.45,2,2,2,663,3
0.369184670623,1.28181082468,0.147284503672,0.135647406252,0.324,0.45,1,1,2,664,3
0.57881090322,0.250733569454,0.179809103713,1.04297330846,0.428,0.45,3,3,2,665,3
1.08210934137,0.112371816988,0.120070289038,0.0185303312974,0.399,0.45,0,0,2,666,3
0.148445253292,1.27776736556,0.107954057179,0.0552910803842,0.298,0.45,1,1,2,667,3
1.09145705755,1.05539008201,0.160971732953,0.0608860257018,0.478,0.45,0,0,1,668,3
0.0235364935004,0.047620883204,0.215586527173,1.06612692213,0.448,0.45,3,3,2,669,3
0.474096939389,1.29733819833,0.0814837179136,0.0735342004379,0.443,0.45,1,1,2,670,3
-0.000216654633445,0.0144229185379,1.17965022791,0.156198199844,0.394,0.45,2,2,2,671,3
0.0452872076715,0.02200108335,0.0243033007332,1.1213740742,0.514,0.45,3,3,1,672,3
0.389107790825,0.224577115335,1.19584137062,0.198925805109,0.519,0.45,2,2,1,673,3
1.60903444619,0.154632861094,0.133402573163,0.169963125175,0.416,0.45,0,0,2,674,3
0.187130835586,0.233556942394,1.14243935039,0.214043551998,0.381,0.45,2,2,2,675,3
1.32762872814,0.412608034492,0.0956558286511,0.179825912436,0.462,0.45,0,0,1,676,3
0.209935725081,1.28807356518,0.0437176777851,0.0654711367238,0.389,0.45,1,1,2,677,3
0.240970172135,0.154727219695,1.08256567301,0.189724795561,0.341,0.45,3,2,-1,678,3
1.23127831303,0.180005847361,0.511477144384,0.120806781066,0.436,0.45,1,0,-1,679,3
1.98968607664,0.0502931016823,0.061718826196,0.09578223611,0.326,0.45,0,0,2,680,3
0.0180846701226,0.183576266972,0.18865623716,0.213656567375,0.7,0.45,3,-1,0,682,3
1.57344349944,0.262818152512,0.0846544929556,0.277053540266,0.482,0.45,0,0,1,682,3
0.163602370052,0.148417918598,0.262315597865,1.08047347509,0.37,0.45,2,3,-1,683,3
0.0997204442986,0.137959399131,1.16133066583,0.0320746750821,0.457,0.45,1,2,-1,684,3
0.0305578153509,0.0490402804985,1.25152595111,0.209141546287,0.378,0.45,2,2,2,685,3
0.126599507208,0.0495865320109,0.576894339498,1.21007181247,0.449,0.45,3,3,2,686,3
0.251058608898,0.16576059067,1.15331163273,0.18525939969,0.473,0.45,2,2,1,687,3
0.281513857211,1.20011208859,0.288317003143,0.0204567195393,0.418,0.45,1,1,2,688,3
0.497075985717,0.229401446599,0.239445692899,1.25876555626,0.406,0.45,3,3,2,689,3
1.98690537557,0.206071479808,0.18152479769,0.0284290578928,0.318,0.45,0,0,2,690,3
0.0279015887335,0.105341393713,0.277182063425,1.15894779573,0.38,0.45,3,3,2,691,3
0.452487195808,1.07735651299,0.0980248674556,-0.00341428253325,0.374,0.45,1,1,2,692,3
1.09718110276,0.168583080154,0.105736940875,0.0592634361371,0.343,0.45,0,0,2,693,3
0.355773391833,1.18783180161,0.252039066682,0.078446779852,0.444,0.45,1,1,2,694,3
0.157788153521,0.453287657178,1.06177613797,0.0621485024459,0.418,0.45,2,2,2,695,3
0.0797076225801,0.0776934996116,0.106060886051,1.02618628302,0.392,0.45,3,3,2,696,3
0.13242330024,0.396045833648,1.0081366186,0.167587422483,0.497,0.45,2,2,1,697,3
1.15036126613,0.0386708550248,0.114603262085,0.0536020621493,0.335,0.45,0,0,2,698,3
0.0617997998488,0.0458809414334,1.2517496927,0.142648370514,0.34,0.45,2,2,2,699,3
1.10065427918,0.684522381995,0.116870826136,0.168514947339,0.447,0.45,0,0,2,700,3
0.0228557230837,0.0294675943956,0.0828748757835,1.28613100754,0.455,0.45,3,3,1,701,3
0.0848971937689,1.18505592652,0.0997225031352,0.00249073244705,0.335,0.45,1,1,2,702,3
2.01552119971,0.134492558847,0.161145657768,0.125978726161,0.342,0.45,0,0,2,703,3
0.507424666064,1.28723297813,0.678404184256,0.163567192971,0.473,0.45,1,1,1,704,3
0.0457380654218,0.0280169724033,0.588408960774,1.01461157247,0.442,0.45,3,3,2,705,3
0.0782099402347,0.0771241132096,1.0107846225,0.0979021638383,0.474,0.45,2,2,1,706,3
0.568935672396,1.31482348145,0.248349293869,0.191108372107,0.45,0.45,1,1,1,707,3
0.192821228163,0.0880451330348,1.14038452795,0.171895082502,0.422,0.45,2,2,2,708,3
0.0381964581723,0.0707060762049,0.0771770968216,1.15399397445,0.395,0.45,3,3,2,709,3
1.28720175773,0.309479935945,0.203546987184,0.0323160046883,0.299,0.45,0,0,2,710,3
0.160889356761,0.192961121781,0.219301074857,1.52710967153,0.344,0.45,2,3,-1,711,3
1.46728340892,0.142850513824,0.222038844393,0.0136663610129,0.388,0.45,0,0,2,712,3
0.193437095886,1.17588307209,0.152083165323,-0.00406772798503,0.303,0.45,1,1,2,713,3
0.0681212522731,0.120011014095,0.320870124406,1.56592486302,0.465,0.45,3,3,1,714,3
0.886212166762,1.15547390789,0.117145277794,0.0998576535587,0.456,0.45,1,1,1,715,3
1.01062645181,0.188008775404,0.104397706691,0.0841442170231,0.405,0.45,0,0,2,716,3
0.0584881401113,0.0760386879948,0.186904035357,1.18565543572,0.43,0.45,3,3,2,717,3
1.51469025615,0.148594187555,0.146433054176,0.152439615621,0.405,0.45,0,0,2,718,3
0.0790266232237,0.0388934008158,1.25411231397,0.16580338754,0.375,0.45,2,2,2,719,3
0.0168967251616,0.214625975593,0.0980404953331,1.25021752195,0.402,0.45,3,3,2,720,3
0.110039173785,1.08683467398,0.117427337492,0.115660209462,0.438,0.45,2,1,-1,721,3
0.106252011827,1.39519713448,0.0156263361045,0.0781454176055,0.539,0.45,1,1,1,722,3
0.0845421106882,0.00497412946497,1.16795034991,0.210312000889,0.508,0.45,2,2,1,723,3
0.0624245362835,1.11619091165,0.0521926417771,0.0857287243127,0.427,0.45,1,1,2,724,3
1.99419186418,0.170142928938,0.188203272867,0.141333591729,0.329,0.45,0,0,2,725,3
0.1578044541,0.157651676604,0.258248723434,1.53670757686,0.398,0.45,3,3,2,726,3
1.10555273277,0.36946218485,0.110220710663,0.101775905146,0.431,0.45,0,0,2,727,3
0.630972270237,1.2538694151,0.111106955709,0.0437894050914,0.386,0.45,1,1,2,728,3
0.00511581542815,0.0234413274998,0.660823678184,1.09197283652,0.454,0.45,3,3,1,729,3
0.0327265383905,0.0934043711445,1.08046855447,0.192875569881,0.354,0.45,2,2,2,730,3
0.133755640361,0.371305535551,0.175952099666,1.07276663938,0.504,0.45,3,3,1,731,3
0.050687440897,1.31309937405,0.0802301670542,0.0766669889198,0.384,0.45,1,1,2,732,3
0.0538925068474,0.057187689081,1.0286129427,0.852746598945,0.397,0.45,2,2,2,733,3
1.30674133639,0.073164724668,0.105588139283,0.0429798465453,0.358,0.45,0,0,2,734,3
0.0949124937845,0.395054783105,1.1383963869,0.270030446928,0.408,0.45,2,2,2,735,3
1.04199256226,0.0730997418804,0.169638749489,0.17464547887,0.363,0.45,0,0,2,736,3
0.149683842678,1.26056662334,0.163609963423,0.0894918822563,0.415,0.45,1,1,2,737,3
-0.00855215273404,0.0737155729704,0.210288958981,1.26179896419,0.353,0.45,3,3,2,738,3
1.49375848999,0.21826297604,0.170223322413,0.000837053263094,0.334,0.45,0,0,2,739,3
0.345401300986,0.171096785476,0.422019210376,1.63060901925,0.424,0.45,3,3,2,740,3
0.516538880272,1.40351209856,0.303900908232,0.012326874092,0.426,0.45,1,1,2,741,3
0.472607529972,0.0710798576909,1.07877125553,0.0830108892598,0.422,0.45,2,2,2,742,3
0.0198942950424,0.0518097942307,0.124381591812,1.28191012335,0.419,0.45,3,3,2,743,3
0.298929854357,0.149390053703,1.10217712999,0.150708293086,0.437,0.45,2,2,2,744,3
0.23856108941,1.37796904514,0.454108756313,0.0976842820543,0.453,0.45,1,1,1,745,3
1.36709891966,0.229601743414,0.130847852138,0.165547495829,0.427,0.45,0,0,2,746,3
0.0628125365353,0.285525142587,1.04868196977,0.152657645404,0.37,0.45,2,2,2,747,3
0.0366424520479,0.236185605498,0.0837548628661,1.27285762934,0.376,0.45,3,3,2,748,3
1.07076002723,0.20073988465,0.0691170656446,0.0417327534657,0.296,0.45,1,0,-1,749,3
1.16125393248,0.075921316983,0.120107303062,0.0945075593634,0.276,0.45,0,0,2,750,3
0.198540531934,0.113566530215,0.0509725354127,0.0724103374748,0.7,0.45,3,-1,0,752,3
1.38651753353,0.612698645594,0.0689984892599,0.0882440911434,0.431,0.45,0,0,2,752,3
0.177030537948,1.11279060805,0.0898877127703,0.0136372612801,0.404,0.45,1,1,2,753,3
0.0474991204518,0.177346244997,0.212047556232,1.46180758746,0.342,0.45,3,3,2,754,3
0.124108083968,0.0520911690816,1.07548830597,0.060596764006,0.41,0.45,2,2,2,755,3
1.20737726227,0.248416459388,0.135674455869,0.107098382822,0.388,0.45,0,0,2,756,3
0.103202629401,0.227793538345,1.09199987754,0.273088023226,0.421,0.45,2,2,2,757,3
0.210616397091,1.31989873208,0.139856741238,0.0371076379673,0.32,0.45,1,1,2,758,3
0.919636965617,0.0627747739305,1.13073544439,0.091832390132,0.411,0.45,2,2,2,759,3
1.45615744367,0.274404480419,0.0505645914917,0.0787191038795,0.408,0.45,1,0,-1,760,3
2.00056177874,0.0617035393472,0.236531147106,0.0969564327826,0.345,0.45,0,0,2,761,3
0.0419879533877,0.0284614746728,0.154950364021,1.16353226525,0.392,0.45,3,3,2,762,3
0.219287656586,1.00233266144,0.167361626617,0.032792777755,0.364,0.45,1,1,2,763,3
0.108637295502,0.0436987687187,0.185148538519,1.16508205423,0.397,0.45,3,3,2,764,3
1.81567085541,0.0882125644608,0.114821259919,0.028911887245,0.423,0.45,0,0,2,765,3
0.209082995957,0.0852904115653,1.08315997493,0.0762786632952,0.38,0.45,2,2,2,766,3
1.67591878328,0.132482603241,0.199042618339,0.0931496802847,0.358,0.45,0,0,2,767,3
0.238699107065,1.24708059946,0.151652980429,0.0657482849935,0.404,0.45,1,1,2,768,3
0.0314851320113,0.0386069718709,1.08109973792,0.179360432913,0.38,0.45,2,2,2,769,3
0.000465575955449,0.0872520100429,0.186393513711,1.25724600889,0.36,0.45,3,3,2,770,3
0.601084801301,0.172009797492,1.13401475131,0.257377435021,0.449,0.45,2,2,2,771,3
0.3690612843,0.0918387392796,1.1015644977,0.217271176555,0.44,0.45,3,2,-1,772,3
1.64126890106,0.162719547825,0.0711713752106,0.0279394407039,0.337,0.45,0,0,2,773,3
0.443646125253,1.18822248114,0.163174477255,0.157368651351,0.34,0.45,1,1,2,774,3
0.0868148138196,0.193430870915,0.277959069045,1.03287123057,0.5,0.45,3,3,1,775,3
0.539084507566,1.3077980744,0.0970290342698,0.0250157957563,0.434,0.45,1,1,2,776,3
1.18322558858,0.0884985470288,0.109419322076,0.0108527103522,0.258,0.45,0,0,2,777,3
0.110693449681,0.0672480855211,0.0856377847017,1.26855683691,0.301,0.45,3,3,2,778,3
0.0909158958661,0.241245440655,1.08887721495,0.476137251208,0.448,0.45,2,2,2,779,3
1.70589610218,0.312176429635,0.165383860467,0.243621933012,0.458,0.45,0,0,1,780,3
0.0530435360877,0.0768813403165,1.18135511759,0.157073381725,0.457,0.45,2,2,1,781,3
0.15885824757,1.13596107824,0.0557657045676,0.111089347611,0.427,0.45,1,1,2,782,3
0.159653484367,0.0332653915758,1.07308504759,0.132116798698,0.38,0.45,2,2,2,783,3
1.09969431128,0.104680571836,0.119310089812,0.107049808307,0.363,0.45,0,0,2,784,3
1.07109217199,0.300053273534,0.373052581598,0.143193501403,0.345,0.45,1,0,-1,785,3
0.00557102153497,0.0313850575427,0.153038789601,1.07297004534,0.36,0.45,3,3,2,786,3
0.163739773441,1.09529484712,0.132778245694,0.00142295199421,0.331,0.45,0,1,-1,787,3
0.0137278038094,0.0325057288684,0.193336807944,1.30465938619,0.466,0.45,3,3,1,788,3
1.70082513942,0.108864199375,0.0810060928352,0.0468909709123,0.362,0.45,1,0,-1,789,3
1.34955218343,0.0237711181435,0.134671197937,0.152151619041,0.389,0.45,0,0,2,790,3
0.0113505555247,0.0234169552889,1.091909843,0.1502135176,0.355,0.45,2,2,2,791,3
0.0278181452911,1.06687837969,0.152989845573,0.048613077954,0.33,0.45,1,1,2,792,3
0.0566577256106,0.0163462293134,1.01690051277,0.152461895953,0.442,0.45,2,2,2,793,3
1.30923299426,0.0267200155218,0.197225642866,0.262887317874,0.401,0.45,3,0,-1,794,3
0.196609043304,0.0163082994756,1.13816581717,0.207593167825,0.604,0.45,2,2,1,795,3
1.21923836369,0.0723415443787,0.20265044109,0.196590346861,0.452,0.45,1,0,-1,796,3
0.0270530167349,0.0189305446139,0.0369762326754,1.34488492325,0.456,0.45,3,3,1,797,3
1.98328292969,0.203900149914,0.20800450308,0.460959812581,0.42,0.45,0,0,2,798,3
0.257226990954,1.20770435899,0.0972870956174,0.0773447921141,0.383,0.45,1,1,2,799,3
1.44891039699,0.128000455664,0.227021686961,0.11724597985,0.44,0.45,0,0,2,800,3
0.208401255065,0.066893029644,0.126188645913,1.13664005581,0.422,0.45,3,3,2,801,3
0.870562397819,1.04845553951,0.283401076679,0.0576337627385,0.455,0.45,1,1,1,802,3
-0.0118305598758,0.0469391272965,1.07728766372,0.419211641043,0.412,0.45,2,2,2,803,3
0.142422986262,0.041696108816,0.108984169427,1.33266180995,0.498,0.45,3,3,1,804,3
1.06181834252,0.198080056232,0.14292785609,0.0486174035491,0.322,0.45,2,0,-1,805,3
1.87556899477,0.0398306421152,0.0764803732709,0.114057428301,0.5,0.45,0,0,1,806,3
0.0594419948184,0.0366792140492,1.4273168666,0.197805311864,0.408,0.45,2,2,2,807,3
0.0563723988368,0.101983642685,0.0792017402756,1.27653257905,0.466,0.45,3,3,1,808,3
0.0888821582901,1.4030507897,0.173484813897,0.0506150244776,0.353,0.45,1,1,2,809,3
1.90039603362,0.24299437611,0.146213094587,0.0123906806505,0.333,0.45,0,0,2,810,3
0.0290925311374,0.0346085772211,0.218327715136,1.50082714343,0.401,0.45,3,3,2,811,3
1.14125321956,0.239444001351,0.113267102025,0.0509698786251,0.407,0.45,0,0,2,812,3
0.276910797573,1.14165429323,0.0900671013302,0.0101954494972,0.356,0.45,1,1,2,813,3
0.164481649489,0.0524319403289,0.102178823117,1.23473225477,0.384,0.45,3,3,2,814,3
0.248754427852,0.261833851511,1.10260349382,0.0791751823772,0.402,0.45,2,2,2,815,3
1.72794902515,0.129824026723,0.0732462241646,0.108623508684,0.406,0.45,0,0,2,816,3
0.150599600047,0.139643301838,1.28897407133,0.330825843764,0.502,0.45,2,2,1,817,3
0.684852703522,1.05801001881,0.731316577301,0.0819665786441,0.465,0.45,1,1,1,818,3
1.56906781868,-0.00558417817821,0.00654229857911,0.0397789209709,0.38,0.45,2,0,-1,819,3
1.72606206274,0.0120897259437,0.0235248959551,0.0250399436591,0.411,0.45,0,0,2,820,3
-0.0176080842778,1.33683689456,0.112914042569,0.0381554072204,0.585,0.45,1,1,1,821,3
0.0117678049245,0.00816551202495,1.0678061538,0.300153958463,0.401,0.45,3,2,-1,822,3
0.119039984591,1.01737493175,0.0990871196518,0.12234921071,0.47,0.45,1,1,1,823,3
1.27859685586,0.196105341234,0.125232320725,0.112982713604,0.289,0.45,0,0,2,824,3
0.182566935612,0.148832579904,0.217355357497,1.57234972095,0.302,0.45,3,3,2,825,3
0.205792766559,1.13664789413,0.150403597812,0.0193512605069,0.353,0.45,2,1,-1,826,3
0.0285199354711,0.0575565516051,0.129112012853,1.12703230001,0.466,0.45,3,3,1,827,3
1.46271776235,0.364042838244,0.128183730472,0.111195872368,0.452,0.45,0,0,1,828,3
0.224470610858,0.0619786660424,1.08859459279,0.0917621454428,0.404,0.45,2,2,2,829,3
0.239142846533,1.15269546128,0.15609902632,0.0567070080096,0.384,0.45,1,1,2,830,3
0.213469818119,0.41480977195,1.02128708204,0.569151342008,0.495,0.45,2,2,1,831,3
0.140044068997,0.0105985069129,0.110516891757,1.39687927214,0.431,0.45,3,3,2,832,3
1.009456918,0.117486186543,0.175865074866,0.0875929255157,0.353,0.45,0,0,2,833,3
0.232712845134,1.01072580756,0.155308225412,0.0818680568038,0.329,0.45,1,1,2,834,3
1.00187714232,0.190192817675,0.179815579534,0.0956529835278,0.405,0.45,0,0,2,835,3
0.0205992420622,0.0748084115954,0.124965246124,1.17481779187,0.384,0.45,3,3,2,836,3
0.304551929853,1.16617622938,0.408716812395,-0.0431770378314,0.494,0.45,1,1,1,837,3
0.137476486761,0.127505907065,0.18068164915,1.00175577769,0.691,0.45,3,3,1,838,3
0.0652915436428,0.0700009407409,1.11992030501,0.0506341336497,0.38,0.45,2,2,2,839,3
1.36097124943,0.120108470589,0.120741044761,0.0679960575472,0.298,0.45,0,0,2,840,3
0.173474566613,0.117757808559,0.214876874457,1.41531261359,0.31,0.45,2,3,-1,841,3
1.04604946312,0.249477067038,0.128821093394,-0.0528352960345,0.354,0.45,1,0,-1,842,3
0.0529475757916,0.0375451745571,1.18583952445,0.0474358133285,0.416,0.45,2,2,2,843,3
0.0463920438877,0.0470041618103,0.0778719119304,1.06895098512,0.392,0.45,3,3,2,844,3
1.44859471122,0.192343154577,0.126678758737,0.0649763774179,0.331,0.45,1,0,-1,845,3
1.25625270965,0.237691965769,0.0750654765139,0.190503036088,0.437,0.45,0,0,2,846,3
-0.0109813849587,0.0461882486438,0.222199834442,1.00123298858,0.448,0.45,3,3,2,847,3
1.14595644356,0.256104851442,0.142943646193,0.0627931238028,0.423,0.45,0,0,2,848,3
0.209317220913,1.26328782366,0.156673901348,0.0432304103037,0.381,0.45,1,1,2,849,3
0.0956165233635,0.0729272533156,1.00080355803,0.21013095228,0.457,0.45,3,2,-1,850,3
0.137656572477,0.152584273767,1.08835201866,0.162392730339,0.449,0.45,2,2,2,851,3
1.1450199417,0.110412989113,0.133079709215,0.176431577489,0.347,0.45,1,0,-1,852,3
0.100517481231,0.0725247913065,1.01107574208,0.17906982017,0.484,0.45,2,2,1,853,3
1.71930544386,0.105304911465,0.143125059306,0.101956928098,0.418,0.45,0,0,2,854,3
0.191254346623,0.0680632640326,1.18239078141,0.125770445091,0.361,0.45,2,2,2,855,3
0.0890365281595,0.0448102603049,0.11367761007,1.09663931071,0.349,0.45,3,3,2,856,3
1.37061533311,0.253273302653,0.19041030286,0.078554790695,0.44,0.45,0,0,2,857,3
0.189533744856,1.25666058327,0.227774914874,0.0990870907019,0.358,0.45,1,1,2,858,3
0.088396800878,0.104281250061,0.205462232303,0.241231880851,0.7,0.45,3,-1,0,860,3
1.00794586321,0.23304885535,0.197148897529,0.110376024427,0.35,0.45,1,0,-1,860,3
1.0987396295,0.0236949663967,0.123235654533,0.0927504388339,0.321,0.45,0,0,2,861,3
0.045593499628,0.053263102179,0.113784399328,1.4353134842,0.419,0.45,3,3,2,862,3
0.0823920399283,0.253191982596,1.06335988796,0.329249743461,0.485,0.45,2,2,1,863,3
0.111992076388,1.09100424213,0.216620823085,0.113492711381,0.375,0.45,1,1,2,864,3
0.415423428933,0.105367486193,1.02468208079,0.159851234594,0.428,0.45,2,2,2,865,3
1.46894540242,0.261744181997,0.138100640012,0.111749467671,0.441,0.45,0,0,2,866,3
0.218312006087,0.211319829616,1.00466641631,0.150769091808,0.417,0.45,2,2,2,867,3
1.40697499037,0.188203948666,0.152239692671,0.00600178296507,0.629,0.45,0,0,1,868,4
0.119464073364,0.191026499859,0.189875358592,1.38947452526,0.448,0.45,3,3,2,869,4
0.14081629978,0.157455609103,0.210125041102,0.0405597463308,0.7,0.45,2,-1,0,871,4
0.239383182428,0.137559245247,1.0895103631,0.229206587668,0.223,0.45,1,2,-1,871,4
0.0597839269243,-0.0190349673861,0.541583148765,1.05370339482,0.39,0.45,3,3,2,872,4
1.15625083423,0.230697154581,0.178339243792,0.142781727307,0.286,0.45,1,0,-1,873,4
1.01662090565,0.0351846091082,0.147857840209,0.154106205465,0.255,0.45,2,0,-1,874,4
0.0251689617974,0.00806918365799,0.385393401422,1.00903963619,0.439,0.45,3,3,2,875,4
1.50496416862,0.105887264811,0.165249842704,0.113744429123,0.287,0.45,0,0,2,876,4
0.207189170687,0.113699102139,1.20170023171,0.275594545696,0.326,0.45,2,2,2,877,4
0.436563413859,1.04991360763,0.160131992793,0.0740697752325,0.317,0.45,0,1,-1,878,4
0.474512224696,1.09455831305,0.436357814066,0.0637687330863,0.45,0.45,1,1,1,879,4
1.59992428787,0.146514768119,0.156121770155,0.120377217783,0.455,0.45,0,0,1,880,4
0.420430607845,1.00409975159,0.442362984158,0.0828403117753,0.481,0.45,1,1,1,881,4
0.438592946858,0.178854692114,1.05394371925,0.157167544755,0.407,0.45,2,2,2,882,4
0.0684237522021,0.123243911569,0.0404667155716,1.08812870022,0.394,0.45,3,3,2,883,4
1.13529600772,0.231308177924,0.157045543339,0.0450434495685,0.325,0.45,1,0,-1,884,4
0.10967835491,0.014519516435,0.157469176178,1.21125433503,0.441,0.45,3,3,2,885,4
0.211171966415,0.104531442875,1.0060441704,0.230814856446,0.497,0.45,2,2,1,886,4
0.321674525747,1.13930601093,0.121709877172,0.0606213051665,0.388,0.45,1,1,2,887,4
1.78306418603,0.135350303638,0.143233887136,0.0782296595317,0.318,0.45,0,0,2,888,4
0.152294556144,0.12617441852,0.635519239457,1.02176041549,0.455,0.45,3,3,1,889,4
1.01553011025,0.15062000252,0.165599030482,0.0430095334409,0.421,0.45,0,0,2,890,4
0.281825289102,0.0868076326765,1.0225296009,0.0752814149196,0.39,0.45,2,2,2,891,4
1.88652385696,0.123113199614,0.100277062095,0.0285765032151,0.399,0.45,0,0,2,892,4
0.134462224426,1.06221078372,0.162178348798,-0.0275648619732,0.408,0.45,1,1,2,893,4
0.0521580680852,0.0282130217405,0.0820050931713,1.02497008476,0.399,0.45,3,3,2,894,4
0.319151527881,0.0516715052965,1.10376556541,0.176262608627,0.361,0.45,2,2,2,895,4
0.217114679387,1.09656123839,0.156123987093,0.0587115691695,0.316,0.45,1,1,2,896,4
0.157662954013,0.0322464708105,1.01478309134,0.31371469808,0.43,0.45,2,2,2,897,4
0.0160661447524,0.0254520431611,0.131772503461,1.12874899851,0.421,0.45,3,3,2,898,4
1.24217284253,0.151568549893,0.0869316734329,0.130827931779,0.321,0.45,0,0,2,899,4
0.0205065750573,0.0661579233049,0.657116365092,1.1324318288,0.445,0.45,3,3,2,900,4
0.281349696708,1.19213945831,0.103280266198,0.0846389046347,0.458,0.45,1,1,1,901,4
1.24257686444,0.0671084294207,0.102985903784,0.0528129149282,0.305,0.45,0,0,2,902,4
0.219363800646,0.110102495676,1.01691819569,0.11416984238,0.335,0.45,2,2,2,903,4
1.01243559577,0.32390590636,0.557865728321,0.27288860868,0.428,0.45,0,0,2,904,4
0.420759240984,1.01416775292,0.0317093009124,0.0835794309956,0.419,0.45,1,1,2,905,4
0.417691447579,0.198474211958,0.740865921395,1.03530451517,0.437,0.45,2,3,-1,906,4
0.0791308929771,0.165121441935,0.172392557291,1.48323910708,0.391,0.45,3,3,2,907,4
0.391054367829,1.04080164358,0.141249842638,0.113007039107,0.479,0.45,1,1,1,908,4
0.0535097422684,0.0752543007875,0.138105020629,1.14546014366,0.433,0.45,3,3,2,909,4
0.386767433981,0.217096576207,1.03918733594,0.178581619929,0.389,0.45,2,2,2,910,4
1.01593995359,0.100806547427,0.075008081256,-0.00356687490462,0.307,0.45,0,0,2,911,4
0.135878527704,0.134656552605,1.05241225084,0.0991441913509,0.374,0.45,2,2,2,912,4
0.497145882242,1.20164890343,0.142949482313,0.038582772721,0.462,0.45,1,1,1,913,4
1.19929587988,0.184944530154,0.0918054321505,0.0942895535704,0.454,0.45,0,0,1,914,4
0.186387723959,0.0927605596252,0.0987150688615,1.74949357045,0.368,0.45,3,3,2,915,4
1.02064719575,0.182718265611,0.101838449836,-0.00127699415118,0.395,0.45,0,0,2,916,4
1.37338049489,0.16060375149,0.113806473238,0.0334474015263,0.388,0.45,1,0,-1,917,4
0.219151006251,0.22206175406,0.141709852091,1.14280030769,0.495,0.45,3,3,1,918,4
0.253720956227,0.155381040975,1.020492006,0.131507582584,0.409,0.45,2,2,2,919,4
0.1419020664,0.124460785863,0.135529237358,1.06685765061,0.478,0.45,3,3,1,920,4
0.283293086852,1.12334618366,0.205241191302,0.0896438171461,0.469,0.45,1,1,1,921,4
0.305985478928,0.0566512975533,1.05188722387,0.349083010848,0.517,0.45,2,2,1,922,4
1.95935083492,0.121999958258,0.0995999058951,-0.0131474474244,0.339,0.45,0,0,2,923,4
0.0803852205885,0.0638622327541,0.12578308956,0.0503990525808,0.7,0.45,2,-1,0,925,4
1.75053115955,0.0748624129427,0.110664242952,0.0889527451842,0.406,0.45,1,0,-1,925,4
1.83470111271,0.0238445127647,0.0838448740125,0.106729942291,0.379,0.45,0,0,2,926,4
0.0606347770805,0.20805176708,0.158677276925,1.1345225653,0.366,0.45,3,3,2,927,4
1.20226089703,0.283682901837,0.100762137626,0.113620041333,0.448,0.45,0,0,2,928,4
0.0721904764273,0.101768820574,1.11726794832,0.336620921036,0.469,0.45,2,2,1,929,4
0.228514161873,1.12586928782,0.154230698407,0.0942028508956,0.348,0.45,1,1,2,930,4
1.12561440274,0.073687323025,0.146316785296,0.102719767042,0.282,0.45,3,0,-1,931,4
1.78449667077,0.186441676557,0.175882668094,0.142497056593,0.374,0.45,1,0,-1,932,4
0.135811923938,1.00075565876,0.277438412539,0.121068043015,0.508,0.45,2,1,-1,933,4
0.127634979923,0.0159653202024,0.225044137785,1.03177896464,0.672,0.45,3,3,1,934,4
0.104054306859,0.077161051408,1.09773410512,0.245941094206,0.587,0.45,2,2,1,935,4
1.01335690059,0.105107842891,0.152834729641,0.0753560690691,0.457,0.45,0,0,1,936,4
0.0824596779437,0.0615784158469,0.164318353529,1.13808949079,0.528,0.45,3,3,1,937,4
1.00775719093,0.0994303386426,0.142504527714,0.0873131447071,0.413,0.45,0,0,2,938,4
1.24723016751,0.179868265168,0.18396009529,0.0818257612899,0.398,0.45,1,0,-1,939,4
1.12579303381,0.0375365965618,0.0364248423317,0.0723778827882,0.535,0.45,0,0,1,940,4
0.0572766543078,0.0221384950813,1.13471124622,0.166957510682,0.464,0.45,2,2,1,941,4
0.203177316954,1.29000026701,0.162147142588,0.0755645536733,0.359,0.45,1,1,2,942,4
0.150636624443,0.0902247766158,0.145613809832,1.04427123735,0.433,0.45,3,3,2,943,4
0.290758729341,0.160303826218,1.0031041017,0.466070052124,0.566,0.45,2,2,1,944,4
0.0993074701394,0.0608199720758,0.438578082231,1.20097261819,0.574,0.45,3,3,1,945,4
0.0745336799284,1.15420328556,0.144455920631,0.11323144859,0.465,0.45,1,1,1,946,4
1.10444995281,0.646898155274,0.073641809078,0.0718947788794,0.337,0.45,0,0,2,947,4
0.0167809714735,1.23845304594,0.0555329767318,0.00879195442988,0.325,0.45,1,1,2,948,4
0.380547240927,0.164280070355,1.10768212108,0.407535658815,0.362,0.45,2,2,2,949,4
1.96073240642,0.151548809854,0.074990319432,0.0842924765813,0.411,0.45,0,0,2,950,4
0.112010304456,0.0685168771445,0.445001136804,1.1158019602,0.461,0.45,3,3,1,951,4
1.99964304791,0.145494709598,0.0984052043424,0.127502813715,0.384,0.45,0,0,2,952,4
0.295643352278,1.00467630578,0.114067646271,0.0928801386219,0.353,0.45,1,1,2,953,4
0.532989819285,0.362214599065,1.085433526,0.290973417324,0.381,0.45,2,2,2,954,4
0.123692695152,0.0623202072571,0.213133734855,1.22630631538,0.352,0.45,3,3,2,955,4
0.621081319474,1.0494183113,0.157918698412,0.097682717704,0.362,0.45,1,1,2,956,4
1.19047499846,0.229625733044,0.19540469662,0.155588520901,0.343,0.45,3,0,-1,957,4
0.179726027078,0.430707047159,0.190375356993,1.23225278723,0.43,0.45,2,3,-1,958,4
0.497949562287,1.09706720115,0.10712319354,0.0549155176757,0.356,0.45,1,1,2,959,4
1.70292746425,0.216376636845,0.149144823037,0.0417834570691,0.283,0.45,0,0,2,960,4
0.241195893951,0.191248345637,0.355323920148,1.37197659048,0.489,0.45,3,3,1,961,4
1.52054026192,0.146223732907,0.0657733462847,0.055760039322,0.455,0.45,0,0,1,962,4
0.0721016099651,0.0886981978934,0.72008787558,1.05040090267,0.514,0.45,2,3,-1,963,4
1.13790240958,0.0498875215181,0.11302469182,0.0067731535844,0.439,0.45,0,0,2,964,4
0.0640439461324,0.0878946674572,0.144846566903,1.03845591024,0.465,0.45,3,3,1,965,4
0.165784466795,0.0779728297142,1.08105011731,0.138212540471,0.428,0.45,2,2,2,966,4
0.0640858845388,1.08680715612,0.099928075727,0.0497062339546,0.32,0.45,1,1,2,967,4
0.776079231481,0.017898262742,0.3502656726,1.2155540085,0.438,0.45,3,3,2,968,4
0.525445529092,1.03104670717,0.128920194456,0.0678418218955,0.356,0.45,1,1,2,969,4
1.09962256562,0.0281562683876,0.0438903058577,0.196841245791,0.314,0.45,2,0,-1,970,4
0.0806352012847,0.0597622515334,0.345928037999,1.15063456947,0.434,0.45,3,3,2,971,4
1.47270768475,0.208575379646,0.191420815951,0.211369551551,0.31,0.45,0,0,2,972,4
0.0546328487981,1.28691216999,0.110827347021,0.105449660419,0.313,0.45,1,1,2,973,4
1.4459835124,0.140504750227,0.192049512152,0.105737081206,0.395,0.45,0,0,2,974,4
0.0561943911509,0.0271461824823,1.09750442424,0.102696426412,0.339,0.45,2,2,2,975,4
0.182993538237,1.3224263592,0.142906922213,0.103778693137,0.26,0.45,0,1,-1,976,4
0.0506246300809,0.0234630059556,0.106917629501,1.12889173281,0.381,0.45,2,3,-1,977,4
0.011117813735,0.0234394553379,0.390168188988,1.17091960383,0.461,0.45,3,3,1,978,4
0.247717656928,1.06837559542,0.126981217935,0.0123992648489,0.382,0.45,1,1,2,979,4
0.680715407396,0.0879195537061,0.191333806861,1.01075658841,0.443,0.45,3,3,2,980,4
0.193482358593,0.0993314165363,1.00786289682,0.175175304017,0.515,0.45,2,2,1,981,4
1.11097994536,0.0547120410281,0.190593459589,0.136367983256,0.352,0.45,1,0,-1,982,4
0.0272340454599,0.0183460778468,1.06600866852,0.106275939209,0.429,0.45,2,2,2,983,4
1.38948115697,0.281347130025,0.127477194921,0.0915883980083,0.468,0.45,0,0,1,984,4
0.0672776815823,0.0746183203788,0.654373876292,1.27254731759,0.51,0.45,3,3,1,985,4
1.29352508019,0.117419395028,0.0808685412155,0.0806585063599,0.419,0.45,0,0,2,986,4
0.0950950281219,1.08767674276,0.142804844636,0.150402383938,0.338,0.45,1,1,2,987,4
1.10125917798,0.0491614398312,0.154828695653,0.0576315432526,0.384,0.45,0,0,2,988,4
0.278010219278,1.09494442137,0.432861168104,0.0923457802134,0.498,0.45,1,1,1,989,4
0.033254635742,0.00798440655707,1.08340804547,0.111276685533,0.41,0.45,2,2,2,990,4
0.0309409516621,0.018551945276,0.0354535121968,1.26364114012,0.459,0.45,3,3,1,991,4
1.32737107647,0.198418429186,0.160567941053,0.0782519813864,0.333,0.45,1,0,-1,992,4
0.125565596854,0.0316190744743,0.0610495863072,1.11369830877,0.646,0.45,3,3,1,993,4
0.0733473107447,0.334119504733,0.193676186173,1.072193299,0.595,0.45,2,3,-1,994,4
1.75800285026,0.176639475164,0.0931085467124,0.0416551005573,0.504,0.45,0,0,1,995,4
0.069840562471,0.0672839195824,1.22796286058,0.0266226449548,0.449,0.45,2,2,2,996,4
1.8187345307,0.167468684902,0.142934953029,0.0492201488831,0.416,0.45,1,0,-1,997,4
1.34511169837,0.0192639406506,0.127502930705,-0.00975731139359,0.383,0.45,0,0,2,998,4
0.0506292057755,0.19692738817,0.184249425972,1.29423227108,0.405,0.45,3,3,2,999,4
1.23190925664,0.69929324641,0.112738147766,0.0487234990394,0.457,0.45,0,0,1,1000,4
0.0587148184654,1.42846888625,0.135584757867,-0.0146150284374,0.442,0.45,1,1,2,1001,4
0.0459548022631,0.0932275204616,0.215098156029,1.1981984319,0.488,0.45,3,3,1,1002,4
0.154824229147,0.09271073047,1.08852806436,0.112771447152,0.384,0.45,2,2,2,1003,4
0.0946182876025,0.144071651478,0.0887865891843,1.37618061048,0.434,0.45,3,3,2,1004,4
0.247477731312,1.08323981408,0.165068676926,0.00670833800354,0.373,0.45,1,1,2,1005,4
0.0583817144553,0.0291403412569,0.213237461297,1.04685601897,0.403,0.45,2,3,-1,1006,4
1.6186264064,0.0226545451293,0.122431029197,0.0773524605735,0.429,0.45,1,0,-1,1007,4
1.39023588609,0.0145667382927,0.110192650886,0.10314144931,0.452,0.45,0,0,1,1008,4
0.221828319642,0.115816557435,1.04350842526,0.102899985291,0.43,0.45,2,2,2,1009,4
1.15908478138,0.0764441378625,0.305284130695,-0.000840335952224,0.478,0.45,0,0,1,1010,4
0.114629113002,0.0860869135347,0.118259190773,1.05365472456,0.451,0.45,3,3,1,1011,4
1.29167390306,0.0326393552914,0.146804094204,0.0489837996059,0.403,0.45,0,0,2,1012,4
0.490702504906,1.01383119643,0.499741229538,-0.0256446841499,0.5,0.45,1,1,1,1013,4
0.0113387868895,0.0237092027255,1.04565855365,0.116434222242,0.419,0.45,2,2,2,1014,4
0.0744973283071,0.0676804527209,0.0491244680435,1.24144454746,0.451,0.45,3,3,1,1015,4
0.0768697292191,0.287729765625,1.16415079667,0.330179323609,0.631,0.45,2,2,1,1016,4
0.0704028955173,1.00986389972,0.121497920169,0.0679499824104,0.455,0.45,1,1,1,1017,4
0.216250982183,0.193091029577,0.169964871004,1.25797756938,0.479,0.45,3,3,1,1018,4
0.324648347655,1.04815855304,0.191501101754,0.0903481037601,0.449,0.45,1,1,2,1019,4
1.40310171733,0.206344510473,0.184703461108,0.116477314296,0.352,0.45,0,0,2,1020,4
0.106342953001,0.135667187412,0.127524309838,1.03233858122,0.438,0.45,3,3,2,1021,4
1.11141067168,0.175208946221,0.148856408159,0.0794114287788,0.397,0.45,0,0,2,1022,4
0.101656236852,0.0884821929884,1.0015341977,0.0661471475118,0.389,0.45,2,2,2,1023,4
1.68994166091,0.247855224556,0.13157739862,0.0506270479693,0.496,0.45,0,0,1,1024,4
0.0728763552243,0.0338092736314,1.0291624314,0.147021395713,0.453,0.45,2,2,1,1025,4
0.0772716358868,1.18212405341,0.0710776873971,0.0158241288032,0.37,0.45,1,1,2,1026,4
0.0935068462299,0.030777625918,0.629657436782,1.15975672751,0.472,0.45,3,3,1,1027,4
0.0383690270663,1.02289819071,0.483882065833,0.0404478665747,0.484,0.45,1,1,1,1028,4
0.0523377054537,0.0145805761435,1.22096530915,0.201319325635,0.469,0.45,2,2,1,1029,4
0.0638261179637,0.0282988216488,0.561925569735,1.11617788009,0.456,0.45,3,3,1,1030,4
1.01984723372,0.160780002747,0.14094043096,0.0363714068699,0.35,0.45,0,0,2,1031,4
0.407685771073,1.23950355832,0.120662745568,0.0443808289518,0.374,0.45,1,1,2,1032,4
1.18557463768,0.147734785806,0.135211379849,0.0258844477632,0.405,0.45,0,0,2,1033,4
0.193910422195,0.101553201333,0.280822983938,1.08708328478,0.439,0.45,3,3,2,1034,4
0.280720078791,0.15157033643,1.11795571426,0.117043004542,0.409,0.45,2,2,2,1035,4
1.52405881458,0.197078169973,0.055894890781,0.0698052346874,0.481,0.45,0,0,1,1036,4
0.121723106451,0.02531399287,0.0643679934491,1.39336582851,0.442,0.45,3,3,2,1037,4
0.29374543442,1.33155773721,0.11685529064,0.0150881835567,0.441,0.45,1,1,2,1038,4
0.265878222713,0.0579838721197,1.09391946096,0.106487328071,0.396,0.45,2,2,2,1039,4
0.207256956761,0.0527726636093,0.130706562039,1.16419409457,0.426,0.45,3,3,2,1040,4
0.261323066305,1.11882959199,0.11444671878,-0.00417875328846,0.384,0.45,2,1,-1,1041,4
0.445473150039,1.38124649246,0.109801087985,0.0593783546437,0.457,0.45,1,1,1,1042,4
1.29283177746,0.02069094084,0.104498368681,-0.0239660841102,0.291,0.45,0,0,2,1043,4
0.330441463569,0.143805471423,1.04399127794,0.0962456854564,0.425,0.45,1,2,-1,1044,4
0.181010069229,0.043785988103,0.22838736306,0.682763392931,0.7,0.45,3,-1,0,1046,4
1.03376283319,0.0363315967746,0.104794578188,0.0340647142136,0.446,0.45,0,0,2,1046,4
0.0630676273965,0.0699392793692,1.17132165744,0.262841104309,0.542,0.45,2,2,1,1047,4
1.6206262401,0.0585612268111,0.0864865062507,0.00541785513978,0.439,0.45,0,0,2,1048,4
0.0684027401908,0.0838530696483,0.168962017737,0.413427789123,0.7,0.45,3,-1,0,1050,4
0.248001753577,0.0816390156155,1.13819182936,0.0893406432652,0.405,0.45,2,2,2,1050,4
0.542408412066,1.10185140835,0.0709562087284,-0.0144303545527,0.395,0.45,1,1,2,1051,4
0.293654584834,0.0690328096769,0.0940326464288,1.00851751425,0.46,0.45,3,3,1,1052,4
0.769412428795,1.07848838648,0.0883138507869,0.026928821609,0.376,0.45,1,1,2,1053,4
1.07443028451,0.0761694966627,0.0771568557855,0.0225228336274,0.332,0.45,2,0,-1,1054,4
0.0787323200169,0.0142263157012,0.227230331195,1.0310718775,0.518,0.45,3,3,1,1055,4
1.87682609874,0.169502145092,0.108581092921,0.0292766543845,0.338,0.45,0,0,2,1056,4
0.154088084856,1.01840223705,0.0781840482135,-0.00898956831699,0.434,0.45,1,1,2,1057,4
1.65008998042,0.511904021892,0.0589808727375,0.0282256067883,0.455,0.45,0,0,1,1058,4
0.0297464187666,0.0203254855549,1.08946584342,0.133331805849,0.473,0.45,2,2,1,1059,4
1.902710186,0.0335722534072,0.104296590675,0.0749508809278,0.408,0.45,0,0,2,1060,4
0.291685453378,0.0513488073485,1.11750601809,0.153333541719,0.432,0.45,2,2,2,1061,4
0.228537453249,1.07854316861,0.0821634959924,0.0585004216554,0.51,0.45,1,1,1,1062,4
0.0866224047753,0.0267525892909,0.149305235322,0.187511548892,0.7,0.45,3,-1,0,1064,4
0.265104413025,0.21611543879,1.02097345224,0.0535505753226,0.518,0.45,1,2,-1,1064,4
0.258803355,0.166786441317,1.03040764407,0.107572465706,0.431,0.45,2,2,2,1065,4
0.0991966395136,0.0983942775686,0.107036450355,0.345683594804,0.7,0.45,3,-1,0,1067,4
1.52374495605,0.233666629043,0.151283420069,0.0599847348223,0.403,0.45,0,0,2,1067,4
0.395761905594,0.207965209439,0.274431152824,1.08435331669,0.483,0.45,1,3,-1,1068,4
0.139938512419,0.142191266612,0.1965663891,0.124300699723,0.7,0.45,0,-1,0,1070,4
0.0407632043965,0.105973843363,0.182109202483,1.268495607,0.487,0.45,3,3,1,1070,4
0.0834499557961,0.0603614947138,1.05858912467,0.0448049517842,0.531,0.45,2,2,1,1071,4
1.00741781521,0.178171563053,0.217041793535,0.119955066727,0.385,0.45,0,0,2,1072,4
0.130178626721,0.0643292606288,1.06232320238,0.129058723265,0.352,0.45,2,2,2,1073,4
0.349471109201,1.07834724181,0.183133469927,0.0699987675255,0.358,0.45,1,1,2,1074,4
0.118460739307,0.108365188272,0.171573529771,1.3405790027,0.397,0.45,3,3,2,1075,4
0.276329877615,0.201610116749,0.198980868266,1.28719597137,0.409,0.45,2,3,-1,1076,4
0.0339214613034,0.155418950602,0.114409836893,1.30106549238,0.516,0.45,3,3,1,1077,4
0.395235824776,1.10547155119,0.663329613111,0.00895959706383,0.646,0.45,1,1,1,1078,4
0.160777563544,0.163900037425,1.16391392184,0.137108954102,0.575,0.45,2,2,1,1079,4
1.45416493672,0.0466584390088,0.115097969652,0.0345036287041,0.41,0.45,0,0,2,1080,4
0.20766346418,1.04181306317,0.231557571916,0.0527015820371,0.45,0.45,1,1,1,1081,4
1.80254334015,0.198142739979,0.133205878978,0.0603893127934,0.434,0.45,0,0,2,1082,4
0.273024291414,0.0989497334532,1.0717094726,0.149448373101,0.398,0.45,3,2,-1,1083,4
1.47428016267,0.0669624163986,0.0837603682279,-0.00737239178409,0.416,0.45,0,0,2,1084,4
1.16064328624,0.18546472889,0.160470995261,0.0687875745349,0.479,0.45,0,0,1,1085,5
0.284637306266,1.0883832508,0.759520280065,0.0602934822142,0.439,0.45,2,1,-1,1086,5
0.216858257398,0.0292347794634,0.423289304797,1.07892952292,0.453,0.45,3,3,1,1087,5
1.21988806166,0.0520611878375,0.0552351545347,-0.0148477155291,0.357,0.45,1,0,-1,1088,5
0.0894609702847,0.0179047028845,1.15580062649,0.152285283677,0.372,0.45,2,2,2,1089,5
1.15461828785,0.224504717507,0.235289779919,0.0483835486979,0.243,0.45,1,0,-1,1090,5
0.201422842544,0.108247044059,0.0835017118747,1.1775883166,0.355,0.45,3,3,2,1091,5
0.197565389671,0.119417486972,1.02312447056,0.0247572020677,0.287,0.45,2,2,2,1092,5
1.63558001462,0.0766622591029,0.251296093656,0.048469980148,0.256,0.45,0,0,2,1093,5
0.613241395972,0.0277456655467,1.10041980082,0.0578133458647,0.32,0.45,1,2,-1,1094,5
1.28575576478,0.0236808051821,0.133964978244,0.0520831127871,0.402,0.45,0,0,2,1095,5
0.151294539906,0.0125646810216,1.04275447414,0.0921962362405,0.396,0.45,3,2,-1,1096,5
2.09877432782,0.0438831360401,0.118795682859,0.0151541305123,0.455,0.45,0,0,1,1097,5
0.114441781551,0.0392186398388,0.0536412353276,1.13816912893,0.46,0.45,3,3,1,1098,5
0.421092530279,1.08722614946,0.088884678918,0.0214127526579,0.427,0.45,1,1,2,1099,5
0.0639580860194,0.0470932186726,1.04599084601,0.121060981293,0.423,0.45,2,2,2,1100,5
0.352956803316,0.252502483948,0.218387226697,1.43327306419,0.438,0.45,3,3,2,1101,5
0.143339645018,1.15190236,0.446281601542,0.14898438513,0.374,0.45,2,1,-1,1102,5
0.0374472438404,1.08814137729,0.11513612137,0.0891196197828,0.344,0.45,1,1,2,1103,5
1.28717824652,0.220983051127,0.161124981144,0.0991533873229,0.274,0.45,0,0,2,1104,5
0.170366327297,1.22134986858,0.163690787542,0.0747487788581,0.286,0.45,2,1,-1,1105,5
0.367415997827,1.17044690968,0.119672675308,0.0639092464622,0.316,0.45,0,1,-1,1106,5
0.243751263944,1.03912954301,0.215587191713,0.0977498521291,0.34,0.45,1,1,2,1107,5
0.113669392562,0.175330285101,0.157169574839,1.38624482952,0.327,0.45,3,3,2,1108,5
1.86831336516,0.242540461776,0.16414851069,0.111349369864,0.371,0.45,0,0,2,1109,5
0.503112251222,1.15365683366,0.313270253423,0.0726415164173,0.419,0.45,1,1,2,1110,5
0.237689975268,0.0751067142714,1.10728103267,0.0817077138347,0.341,0.45,2,2,2,1111,5
0.53646226564,0.269851227838,0.2389048979,1.13312521074,0.376,0.45,3,3,2,1112,5
1.13311312981,0.310309125279,0.16920505684,0.0606979685389,0.378,0.45,2,0,-1,1113,5
1.52818966833,0.162501431002,0.113742507357,0.0665842794434,0.312,0.45,1,0,-1,1114,5
0.128510025046,0.0582080484208,0.0847129121007,1.50693179497,0.447,0.45,3,3,2,1115,5
0.126348075228,1.08669402392,0.0744759092761,0.121354826091,0.342,0.45,1,1,2,1116,5
2.15448777867,0.189301108402,0.0880633528395,0.0832809975023,0.357,0.45,0,0,2,1117,5
0.0462834767249,0.114575190588,0.244151931336,1.3151062108,0.425,0.45,3,3,2,1118,5
1.42234716321,0.171925390149,0.175911001276,0.163537419604,0.379,0.45,0,0,2,1119,5
0.153407364484,0.11267779594,1.0098010929,0.0778301292581,0.359,0.45,2,2,2,1120,5
1.03222116513,0.721303963487,0.0739113283971,0.111156090211,0.43,0.45,0,0,2,1121,5
0.0572371212866,0.0230137358452,1.19871021334,0.245499906259,0.461,0.45,2,2,1,1122,5
0.103009323624,1.27159955008,0.124551799643,0.00925223755483,0.4,0.45,1,1,2,1123,5
0.481318690574,0.182265984579,0.205423565166,1.08317254053,0.43,0.45,3,3,2,1124,5
1.1648858191,0.32281053198,0.222938627846,0.0106470232678,0.419,0.45,1,0,-1,1125,5
0.122514996235,0.0614775871812,1.14600139786,0.218029307567,0.48,0.45,2,2,1,1126,5
0.0217268700093,0.0295596007333,0.134572545573,1.08852595806,0.517,0.45,3,3,1,1127,5
0.1237294809,0.0576754122611,1.11196051338,0.17643254676,0.556,0.45,2,2,1,1128,5
1.79266715078,0.018734601191,-0.00680602787112,0.0518903734478,0.503,0.45,0,0,1,1129,5
0.0499938711374,1.31926705068,0.00428412552075,-0.00872085555735,0.472,0.45,1,1,1,1130,5
1.33354908233,0.0191912610768,0.0402824460272,0.0633217303649,0.492,0.45,0,0,1,1131,5
0.22147013052,0.0988255795432,0.238569313038,1.12118886896,0.526,0.45,3,3,1,1132,5
1.19452942925,0.182415443776,0.122983886296,0.0588118903314,0.431,0.45,0,0,2,1133,5
0.0365537080812,0.0223193488623,0.177348817314,1.04022583133,0.455,0.45,3,3,1,1134,5
0.14162795959,1.12921219253,0.143849626329,0.0499800430888,0.4,0.45,1,1,2,1135,5
1.03634895874,0.540196845662,0.150003148978,0.0578009228814,0.349,0.45,2,0,-1,1136,5
0.0339613977023,-0.00545664583629,0.0600506085326,1.02744331654,0.369,0.45,3,3,2,1137,5
0.136837735159,0.0285956241749,1.21278240297,0.197206234167,0.524,0.45,2,2,1,1138,5
0.132598313676,1.01882804156,0.10453957323,0.0483721311969,0.455,0.45,1,1,1,1139,5
1.50343956349,0.196260590581,0.171923471731,0.107356946584,0.329,0.45,0,0,2,1140,5
0.227416342318,0.229778921262,1.06957457509,0.181118626229,0.391,0.45,1,2,-1,1141,5
0.180179708608,0.0971779857109,0.475835972917,1.00792429775,0.563,0.45,3,3,1,1142,5
0.0888881729904,1.10418102728,0.0643273471551,-0.0371297210209,0.401,0.45,0,1,-1,1143,5
0.300590850051,0.0098219438391,0.125923517788,1.24572742932,0.445,0.45,2,3,-1,1144,5
1.40610705223,0.0319889176261,0.141928178473,-0.0238475379722,0.564,0.45,0,0,1,1145,5
0.154366054813,0.0215183149727,0.1431456092,1.16705841819,0.579,0.45,3,3,1,1146,5
0.245403998547,1.00266003889,0.151714130106,0.113741352894,0.61,0.45,1,1,1,1147,5
0.115545392429,0.029432002267,0.210183626878,0.152103288816,0.7,0.45,2,-1,0,1149,5
0.00630596217235,0.0293513371971,0.0502689333252,1.34971307654,0.546,0.45,3,3,1,1149,5
0.153868184174,0.0503602314613,1.2092558737,0.0979976181782,0.488,0.45,2,2,1,1150,5
0.230441313511,1.14734563478,0.139077135567,0.0729103144526,0.395,0.45,1,1,2,1151,5
1.81744014064,0.0242281609428,0.140648714927,0.0737609278314,0.321,0.45,0,0,2,1152,5
0.466340697606,1.11792554263,0.162128142736,0.0622998060936,0.358,0.45,1,1,2,1153,5
0.0592651695874,0.135081696077,0.307286411668,1.15450702459,0.437,0.45,3,3,2,1154,5
1.23517436668,0.120363315777,0.119956543287,0.0723354623704,0.407,0.45,0,0,2,1155,5
0.125873655889,0.0841780613315,1.11264283229,0.166291513043,0.399,0.45,2,2,2,1156,5
1.33876761096,0.15592041852,0.0870262868687,0.0303020577796,0.408,0.45,0,0,2,1157,5
0.0507548591749,1.35093946888,0.106139781407,0.0171070309518,0.36,0.45,1,1,2,1158,5
0.0634572529503,0.156887688497,0.382568151627,1.1136377447,0.41,0.45,3,3,2,1159,5
0.355487515649,0.286514487487,1.17843086778,0.131488616083,0.366,0.45,2,2,2,1160,5
0.0853044099414,0.493996065287,0.132094917879,1.28416988062,0.587,0.45,3,3,1,1161,5
0.475857330172,1.18819757566,0.191719988495,0.0401520935064,0.429,0.45,1,1,2,1162,5
0.279302091217,0.255135113725,1.06860027578,0.71312667655,0.453,0.45,2,2,1,1163,5
0.455120156227,1.15016517079,0.168860610433,0.109344991024,0.403,0.45,1,1,2,1164,5
1.57833176542,0.205044819203,0.128034262691,0.0688150278541,0.332,0.45,0,0,2,1165,5
0.0293375542029,0.349086362079,1.13304772167,0.241311630799,0.429,0.45,2,2,2,1166,5
1.27862028698,0.70472986539,0.061704565531,0.0437779984787,0.415,0.45,0,0,2,1167,5
0.235343934115,0.257132125067,0.17026085294,1.39666145946,0.494,0.45,3,3,1,1168,5
1.01130985532,0.46753636515,0.145194808153,0.127172660604,0.486,0.45,0,0,1,1169,5
0.145177895261,1.36983599189,0.142165137505,0.136115863845,0.321,0.45,1,1,2,1170,5
1.57121616758,0.230727639708,0.17752744932,0.148654703231,0.38,0.45,2,0,-1,1171,5
0.00157411205766,0.0225531663992,0.228245173492,1.9267617523,0.487,0.45,3,3,1,1172,5
0.145028795155,1.02655663341,0.0956911255653,-0.02069394423,0.399,0.45,1,1,2,1173,5
0.0540352156413,0.0304651166146,0.0521931020601,1.34448132037,0.432,0.45,3,3,2,1174,5
0.107901089251,0.0909141819252,1.16428118166,0.151424191702,0.546,0.45,2,2,1,1175,5
0.0283368263426,1.06903597788,0.232362856061,0.231274166219,0.389,0.45,1,1,2,1176,5
1.2647063795,0.209219020808,0.199326059948,0.259396681364,0.34,0.45,0,0,2,1177,5
0.0499126904885,0.144999792451,1.04276685872,0.258395398931,0.436,0.45,2,2,2,1178,5
1.37136538696,0.241492922452,0.0595810314032,0.111334197773,0.444,0.45,0,0,2,1179,5
0.00440144230867,0.0192072875591,0.391608073337,1.13412101641,0.419,0.45,3,3,2,1180,5
0.113221206981,1.19102583696,0.0907685938134,0.0469995668685,0.297,0.45,0,1,-1,1181,5
0.155775878988,0.0166697485091,0.0440359011629,1.31587081571,0.397,0.45,3,3,2,1182,5
0.0653306374429,0.0530901848475,1.11982057462,0.0860653088505,0.366,0.45,2,2,2,1183,5
0.155483096786,1.37163507032,0.186502527672,0.0653120927452,0.317,0.45,1,1,2,1184,5
0.119569717641,0.0384489623056,0.230811770692,1.09664091371,0.339,0.45,3,3,2,1185,5
0.349704495468,1.28190516734,0.193308899606,0.149893289343,0.399,0.45,1,1,2,1186,5
0.170953281261,0.0960215090392,1.00262048372,0.14266619778,0.386,0.45,2,2,2,1187,5
0.106548544995,0.025736794294,0.279990132521,1.25514551522,0.428,0.45,3,3,2,1188,5
0.566365393501,1.10320620331,0.172899309358,0.0812084289263,0.412,0.45,0,1,-1,1189,5
0.0514569352063,1.2563100224,0.184769127589,0.118352990731,0.4,0.45,2,1,-1,1190,5
1.54803058682,0.030007996413,0.108112040543,0.228737541944,0.516,0.45,0,0,1,1191,5
0.183034294493,1.19065185805,0.140823930374,0.172383622705,0.555,0.45,1,1,1,1192,5
1.80166142771,0.100207081068,0.148061565007,0.15286870449,0.462,0.45,0,0,1,1193,5
0.127288394802,0.0904020434947,0.323863764097,1.21383319699,0.445,0.45,3,3,2,1194,5
0.412937041895,1.18751168642,0.225828525957,0.0410217551665,0.389,0.45,1,1,2,1195,5
0.20812108749,0.149003168397,1.02487520082,0.17180738374,0.462,0.45,2,2,1,1196,5
0.186231719018,0.17168679302,0.119445262967,1.50368593572,0.396,0.45,3,3,2,1197,5
0.191385288959,0.119327004356,1.11391830047,0.237459421509,0.459,0.45,2,2,1,1198,5
0.232691512465,1.03543707265,0.157136847152,0.163107181855,0.356,0.45,1,1,2,1199,5
0.107516485765,0.0653333699927,0.268830780127,1.27347293973,0.363,0.45,3,3,2,1200,5
1.16104146222,0.150745839506,0.171870160122,0.0322662767911,0.386,0.45,0,0,2,1201,5
1.46870016611,0.149823818749,0.303564342936,0.10092195809,0.431,0.45,1,0,-1,1202,5
1.74349807849,0.00802616483193,0.072408943657,-0.0147612535901,0.573,0.45,0,0,1,1203,5
