force_0,force_1,force_2,force_3,rt,rt_threshold,target_finger,selected_finger,score,trial,run
1.4640959278,0.398550499658,0.294613059006,0.477746775284,0.451,0.45,0,0,1,0,0
0.324925406686,0.512969398746,1.01725765789,0.582903935909,0.443,0.45,2,2,2,1,0
0.362789473481,0.439219918404,0.407529642255,1.07001457628,0.417,0.45,3,3,2,2,0
0.533595792277,1.1181111504,0.278737315879,0.557973307987,0.366,0.45,1,1,2,3,0
0.317420437708,0.410607001753,0.304673375759,1.09315889049,0.326,0.45,3,3,2,4,0
0.376692592196,0.383028350665,1.02634733733,0.556648316815,0.376,0.45,2,2,2,5,0
0.402707803102,1.04263388109,0.222051405544,0.566619823325,0.333,0.45,1,1,2,6,0
0.0934842676575,0.121398598859,1.03249335179,0.472313889053,0.352,0.45,2,2,2,7,0
1.10560362962,0.363306734086,0.262816783694,0.541583090505,0.314,0.45,0,0,2,8,0
0.154169772233,1.03405987515,0.379420302116,0.519443449349,0.366,0.45,1,1,2,9,0
1.13616422032,0.456693092687,0.405693486608,0.63576290849,0.401,0.45,0,0,2,10,0
0.329299086037,0.37380534553,0.490720594804,1.05409998981,0.363,0.45,3,3,2,11,0
1.06666775381,0.478641982423,0.319349058677,0.560788452875,0.405,0.45,0,0,2,12,0
0.428513466669,0.336826354493,1.00582749897,0.650354570832,0.3,0.45,2,2,2,13,0
0.332296771546,0.402550360833,0.24704093766,1.2915338478,0.343,0.45,3,3,2,14,0
0.425995111754,1.18070057661,0.200265862691,0.540495949892,0.319,0.45,1,1,2,15,0
0.533463467164,0.370806421625,0.33522530895,1.04769635012,0.305,0.45,3,3,2,16,0
0.161493042033,0.0834811796356,1.04462950542,0.600303934244,0.4,0.45,2,2,2,17,0
0.242710056704,1.03055461022,0.274790977797,0.549646296584,0.402,0.45,1,1,2,18,0
1.11633105164,0.347016714346,0.25991320861,0.68777269601,0.343,0.45,0,0,2,19,0
0.384046079203,1.02954608455,0.2243188677,0.529550603668,0.366,0.45,1,1,2,20,0
0.272891204167,0.185382503827,1.05392436535,0.567756183054,0.361,0.45,2,2,2,21,0
1.11429974394,0.337618169818,0.264216259402,0.475069125931,0.308,0.45,0,0,2,22,0
0.313887701469,0.302593379226,0.25062787001,1.08827527319,0.304,0.45,3,3,2,23,0
1.08299139686,0.919360658084,0.154537900434,0.463624708412,0.404,0.45,0,0,2,24,0
1.20889372401,0.205296013423,0.202245634346,0.540305130258,0.119,0.45,3,0,-1,25,0
0.322041525127,0.157333199951,1.08768265991,0.603945018539,0.523,0.45,2,2,1,26,0
0.323888977678,1.01222147088,0.0918177869617,0.375007762511,0.421,0.45,1,1,2,27,0
1.13967941044,0.426277078985,0.180832964502,0.527350182327,0.299,0.45,2,0,-1,28,0
0.244954542968,0.143352932741,0.155021384863,1.18300163754,0.462,0.45,3,3,1,29,0
0.165173582763,1.00068103184,0.860014238491,0.47604202349,0.42,0.45,1,1,2,30,0
1.02873373191,0.37349579847,0.169431680191,0.716618091686,0.439,0.45,0,0,2,31,0
1.03146334992,0.355215656937,0.224120167389,0.438612967214,0.395,0.45,1,0,-1,32,0
0.369155024291,0.357205034348,0.207822976695,1.13821262376,0.407,0.45,3,3,2,33,0
1.08411269623,0.28249215316,0.112021373157,0.446168949648,0.368,0.45,0,0,2,34,0
0.410343234088,0.250097821841,0.17561347994,0.565368308311,0.7,0.45,2,-1,0,36,0
0.138876670184,0.0864600800856,1.02186021717,0.416403397596,0.086,0.45,0,2,-1,36,0
0.297595519591,1.03205803778,0.256286585846,0.593096782398,0.35,0.45,1,1,2,37,0
0.219972675158,0.325462425628,0.300389788792,1.07747756276,0.321,0.45,3,3,2,38,0
0.0448263407055,0.0765399815989,1.00848220296,0.357637129722,0.412,0.45,2,2,2,39,0
0.244549858328,1.14240918825,0.203898630674,0.565324522642,0.342,0.45,1,1,2,40,0
0.242382212494,0.125745526415,1.00295432406,0.6004091329,0.35,0.45,2,2,2,41,0
0.358340187287,0.365223645781,0.176798592031,1.40212024276,0.368,0.45,3,3,2,42,0
0.399584545312,1.03126920241,0.118721193865,0.555079656153,0.336,0.45,1,1,2,43,0
1.12835476392,0.23325040827,0.188246333261,0.658134149578,0.317,0.45,0,0,2,44,0
0.070642059173,0.142315946163,1.02401420232,0.720541950508,0.39,0.45,2,2,2,45,0
1.11307547262,0.64697824992,0.14666463494,0.590925923261,0.368,0.45,0,0,2,46,0
0.183449656357,0.100689070741,0.276381053786,1.4084562433,0.389,0.45,3,3,2,47,0
1.11457127684,0.263177862911,0.282837988672,0.460030467411,0.381,0.45,0,0,2,48,0
0.0699826337786,0.422573378373,0.0693838654856,0.475964781311,0.7,0.45,1,-1,0,50,0
0.0929658150311,1.00892753007,0.0568403099805,0.497872445641,0.109,0.45,3,1,-1,50,0
0.0432386958506,0.076866463613,0.500581082765,0.16527875796,0.7,0.45,2,-1,0,52,0
0.0381991577919,0.0596452422188,1.06397545928,0.0993167328478,0.069,0.45,1,2,-1,52,0
0.0532771536632,0.0955474191272,1.04278621906,0.21329257969,0.443,0.45,2,2,2,53,0
0.218157867367,0.128870365893,0.144236454883,1.03524831801,0.374,0.45,3,3,2,54,0
1.01582392918,0.583058805672,0.0808535183606,0.251282388282,0.379,0.45,1,0,-1,55,0
1.40789015605,0.234737005699,0.179019493801,0.388938081834,0.399,0.45,0,0,2,56,0
0.107937809223,0.102672780245,0.289116737777,1.17335450636,0.355,0.45,3,3,2,57,0
1.13836330196,0.156474235623,0.0147741168308,0.405465754142,0.365,0.45,0,0,2,58,0
0.093633295048,0.0725318536592,1.06718751217,0.322332024316,0.347,0.45,2,2,2,59,0
1.01214922121,0.117999099135,0.0873306363568,0.470765962886,0.324,0.45,0,0,2,60,0
0.246041950613,0.124300678245,0.25795557306,1.03039811627,0.29,0.45,3,3,2,61,0
0.056050946981,0.102122314556,1.07713772924,0.373547801365,0.468,0.45,2,2,1,62,0
0.154776476358,1.10084499347,0.0432500427665,0.38950214418,0.453,0.45,1,1,1,63,0
0.121840795572,0.062392383934,1.09688927978,0.543267161928,0.416,0.45,2,2,2,64,0
0.311133091774,0.0853289556214,0.270328548079,1.01434799069,0.358,0.45,3,3,2,65,0
0.0902654520857,1.1552575905,0.336805400048,0.269046383129,0.405,0.45,1,1,2,66,0
1.4404804001,0.285513427252,0.134044379582,0.450484880529,0.347,0.45,0,0,2,67,0
0.192443288246,1.16066714422,0.13598600124,0.306790863848,0.334,0.45,1,1,2,68,0
0.285866805856,0.142405200802,0.205949854006,1.15262033816,0.267,0.45,3,3,2,69,0
1.17644089382,0.398577308673,0.109818042782,0.254471195457,0.327,0.45,0,0,2,70,0
0.0884432030491,0.0864491514743,1.01879389011,0.488595783602,0.307,0.45,2,2,2,71,0
1.37199374558,0.104441339127,0.0252873238715,0.395765035367,0.316,0.45,0,0,2,72,0
0.225611525859,1.09212890035,0.10296137633,0.466498206715,0.331,0.45,1,1,2,73,0
0.104118769705,0.0108274572885,1.07248198692,0.405742115664,0.333,0.45,2,2,2,74,0
0.204894444712,0.00803347220224,0.141315405015,1.20930069706,0.286,0.45,3,3,2,75,0
0.233790641449,1.31606149249,0.0531490964335,0.268504264176,0.334,0.45,1,1,2,76,0
0.14115281687,0.046773310207,0.0884246394713,1.02865446219,0.291,0.45,3,3,2,77,0
0.0652576865825,0.0342905191394,1.21307331314,0.348268134743,0.372,0.45,2,2,2,78,0
1.37706430019,0.0181362788227,0.00814907293409,0.49335042973,0.271,0.45,0,0,2,79,0
0.0384032948148,0.025444158999,1.09420296695,0.543113248631,0.319,0.45,2,2,2,80,0
0.244047970576,1.00980716366,0.0445496427967,0.552604062858,0.304,0.45,1,1,2,81,0
1.06769017731,0.052754962471,0.0996011694729,0.281372625541,0.32,0.45,0,0,2,82,0
0.027763738519,0.0440370029791,1.16760282775,0.381253720064,0.322,0.45,3,2,-1,83,0
1.63695876079,0.0322603310352,-0.00748560792961,0.254842240315,0.419,0.45,0,0,2,84,0
0.760206446887,1.47969499525,0.0216947423379,0.0942095152139,0.35,0.45,1,1,2,85,0
0.0634245157183,0.0398338110583,0.0669978026615,1.22210683623,0.333,0.45,3,3,2,86,0
0.0195397712569,0.0319987534648,1.37554398573,0.175666113931,0.351,0.45,2,2,2,87,0
0.0917541397309,1.47666074246,-0.00651743278965,0.326004593795,0.33,0.45,1,1,2,88,0
0.0798075715779,0.039342450358,1.02126298265,0.42420659036,0.419,0.45,2,2,2,89,0
0.219653730757,0.0129738252779,0.0216270915938,1.20779531831,0.324,0.45,3,3,2,90,0
1.52658849467,0.0209658815819,0.00219922588704,0.349528301945,0.276,0.45,1,0,-1,91,0
1.44801127017,0.0335984002315,0.0383206626812,0.501391324032,0.303,0.45,0,0,2,92,0
0.0625000000318,0.0242244133262,0.112537579655,1.06780604508,0.339,0.45,3,3,2,93,0
1.67894356035,0.0214187661765,-0.00213905126707,0.302587652048,0.378,0.45,0,0,2,94,0
0.053102254982,0.109064952573,1.05471325812,0.209096097119,0.288,0.45,2,2,2,95,0
1.20446194744,0.0610601233276,0.0156385607033,0.0657041791534,0.359,0.45,0,0,2,96,0
0.0343829198687,0.0511623094022,0.0156261898348,1.57189836215,0.386,0.45,3,3,2,97,0
0.0864352649765,0.0676920031485,1.34859563544,0.0027866574409,0.474,0.45,2,2,1,98,0
0.0322300178992,1.23157726742,0.00783129709393,0.182857732874,0.369,0.45,1,1,2,99,0
0.130382066341,0.025577024212,1.12354613971,0.214002365004,0.383,0.45,2,2,2,100,0
0.217467392227,0.0562692895275,0.0416124838827,1.05757796324,0.341,0.45,3,3,2,101,0
0.0524848861204,1.13079606195,0.0541903210923,0.0637297773309,0.463,0.45,1,1,1,102,0
0.070171293633,0.0404747343762,0.00475830685543,1.1434512628,0.41,0.45,3,3,2,103,0
1.53156838616,0.0514423207402,0.0154644502487,0.179338558872,0.299,0.45,0,0,2,104,0
1.03120473215,0.0329598616198,0.120777047333,0.115229753401,0.34,0.45,1,0,-1,105,0
1.41872262191,0.0796082972633,0.0196940567041,0.239216791749,0.405,0.45,0,0,2,106,0
0.0294596210302,0.0454780367479,1.23853871204,0.271459119169,0.387,0.45,2,2,2,107,0
1.34896902372,0.117890402631,0.000672775594373,0.123018050538,0.382,0.45,0,0,2,108,0
1.36970942567,0.021592011024,5.75160725317e-05,0.346160069717,0.353,0.45,1,0,-1,109,0
0.0949725980738,0.0783282188772,1.07385803631,0.120793431326,0.39,0.45,2,2,2,110,0
0.0105353788429,0.0316569064373,0.0253938179029,1.09419068261,0.298,0.45,3,3,2,111,0
0.0331223019289,0.0289193819093,1.24223774074,0.196972900586,0.332,0.45,2,2,2,112,0
0.0242475367107,1.13450449504,0.0156364093676,0.293294229113,0.307,0.45,1,1,2,113,0
0.024854382682,0.0156339912223,-0.0140505293365,1.17678946427,0.335,0.45,3,3,2,114,0
1.00932362188,0.015625846279,-0.0154334362388,0.107291168437,0.311,0.45,1,0,-1,115,0
1.29940404845,0.0265976584529,-0.0127774551267,0.196358084779,0.318,0.45,0,0,2,116,0
0.00781250028938,0.0165639966523,1.33278039259,0.158807184837,0.304,0.45,2,2,2,117,0
1.21743227049,0.0535372437891,0.0114048881803,0.307246441208,0.302,0.45,0,0,2,118,0
0.0291812710447,0.0333531950131,-0.00328695165437,1.08896410832,0.301,0.45,3,3,2,119,0
1.45712200786,0.0314719155533,-0.00734596762797,0.0767853712365,0.325,0.45,0,0,2,120,0
-0.00781242424447,0.0312778295089,1.05237024665,0.153136192565,0.294,0.45,2,2,2,121,0
-0.0065775286991,0.0312528458727,0.00793938945667,1.25706914387,0.329,0.45,3,3,2,122,0
0.0101690755019,1.32211090541,0.00782456267824,0.0558607085205,0.332,0.45,1,1,2,123,0
-0.00254617944556,0.0354647806275,0.0256758725789,1.13322826251,0.385,0.45,3,3,2,124,0
-0.00592031966343,0.0581254724518,1.19675650075,0.0874866235015,0.395,0.45,2,2,2,125,0
3.56728515881,0.0496119024416,0.00783789498677,0.177038977596,0.306,0.45,1,0,-1,126,0
1.21988314793,0.0652803008584,0.000919877331368,0.254666897615,0.363,0.45,0,0,2,127,0
1.19684778005,0.0256017304849,0.0356909241222,0.0651794563339,0.349,0.45,1,0,-1,128,0
0.0157288093562,0.0249882081629,1.33622120447,0.123323745865,0.367,0.45,2,2,2,129,0
1.16972673899,0.0276938078975,0.0377545541569,0.0688932251758,0.374,0.45,0,0,2,130,0
0.015625000927,0.0166614864113,0.0746468359748,1.15380190048,0.425,0.45,3,3,2,131,0
4.26330851566,0.132305293102,-0.0141033408372,0.0387964705428,0.412,0.45,0,0,2,132,0
5.04977615279e-09,-0.00579707484787,0.0380197749856,1.07080469642,0.381,0.45,3,3,2,133,0
0.00260649080327,1.24370476526,-0.0164581835352,0.0427262474923,0.335,0.45,1,1,2,134,0
0.00822881763725,-0.00756926107446,1.00403594189,0.145241646191,0.314,0.45,2,2,2,135,0
0.0351193966633,0.0202583130398,0.0171925293027,1.22951587648,0.265,0.45,3,3,2,136,0
0.0129051057092,0.142932980279,1.23260992501,0.179623541419,0.499,0.45,2,2,1,137,0
0.00474345094047,1.02425584069,0.00160476751873,0.00633990809595,0.456,0.45,1,1,1,138,0
1.04393581313,0.0130257881519,0.00232212312996,0.125720248998,0.327,0.45,0,0,2,139,0
0.0546875150537,0.000138141738267,1.05520661382,0.131442361435,0.331,0.45,2,2,2,140,0
1.66069355349,0.0147493400782,0.0079139940821,0.0483160611792,0.381,0.45,0,0,2,141,0
1.46212449319,0.00749083525688,0.0266941422083,0.0592238008243,0.358,0.45,1,0,-1,142,0
0.0237778111613,0.00789455606984,0.0162971772815,1.13578256809,0.428,0.45,3,3,2,143,0
1.01376623521,0.00309559055098,-0.0198585910543,-0.119498582035,0.39,0.45,0,0,2,144,0
0.0385331568331,0.00677902880989,1.17887691116,0.0401386733748,0.387,0.45,3,2,-1,145,0
0.0434779650756,1.20946012062,0.000112103119443,0.0331654326658,0.366,0.45,1,1,2,146,0
0.0242190127051,0.00124879205745,1.21362315552,0.00150334523066,0.343,0.45,2,2,2,147,0
0.0251684735917,7.6711351142e-05,0.0156324764974,1.12968859736,0.303,0.45,3,3,2,148,0
0.0377328317982,6.40515350869e-06,1.00959374489,0.0554582038629,0.399,0.45,2,2,2,149,0
0.0336179687101,1.10171342156,0.00782197419901,0.0402488941493,0.377,0.45,1,1,2,150,0
0.0837487171124,-0.00502582871891,0.00781314017779,1.12190087247,0.353,0.45,3,3,2,151,0
1.18243928262,-0.00757318804632,-0.0201670128819,0.0204180569044,0.29,0.45,0,0,2,152,0
0.00781254222613,-0.00778711838855,1.18107134397,0.0232909062535,0.31,0.45,2,2,2,153,0
1.17606824559,0.0353384152128,0.00789427866154,0.023425216488,0.406,0.45,0,0,2,154,0
0.00201966315192,1.54107062143,0.0216974912519,0.0560650871452,0.43,0.45,1,1,2,155,0
1.18795313629,-0.0078044438232,-0.00140610069312,0.00987392843899,0.382,0.45,0,0,2,156,0
0.0159088003246,-0.00781191163004,1.02979332287,0.0321701151598,0.313,0.45,2,2,2,157,0
0.0350128428625,-0.00781244139825,0.000143271386743,1.02416738852,0.352,0.45,3,3,2,158,0
0.0164157796384,1.04120701428,1.16287795819e-05,-0.00780926114472,0.409,0.45,1,1,2,159,0
0.0157180376717,0.00782473517946,1.36957993968e-06,1.12896380897,0.398,0.45,3,3,2,160,0
0.0373812691981,0.0994932917686,1.05666701537,-0.00938359943099,0.443,0.45,2,2,2,161,0
0.0182938882385,1.0016724568,5.50666421727e-05,0.00303446682869,0.438,0.45,1,1,2,162,0
1.47877322383,0.0156736976096,6.17232498312e-06,0.000471966557124,0.328,0.45,0,0,2,163,0
0.194523143376,1.02281041097,0.00231173076446,-0.00180664816657,0.484,0.45,1,1,1,164,0
0.0181433374857,0.0146063054394,1.03290451264,0.00841607230508,0.38,0.45,2,2,2,165,0
1.75486244577,-0.0123795039513,-0.0100872738351,0.0235788865217,0.401,0.45,0,0,2,166,0
-0.00780605615687,-0.0134555109084,-0.0102026054107,1.29570536085,0.405,0.45,3,3,2,167,0
1.22829391129,-0.0153708937892,-0.0080211319306,0.0142800640489,0.394,0.45,0,0,2,168,0
-0.00567602569178,1.02150647492,-0.0232176397621,0.00623015411276,0.405,0.45,1,1,2,169,0
-0.014841499835,7.36366277689e-05,-0.023738176679,1.07516158801,0.383,0.45,3,3,2,170,0
-0.0215082032324,6.10055661387e-06,1.57135278602,0.0467938634182,0.359,0.45,2,2,2,171,0
0.0219582344745,1.12007767898,0.0157663830594,0.0317212841147,0.362,0.45,1,1,2,172,0
0.0203978833645,0.00011042646047,1.06658729544,0.0339383332135,0.381,0.45,2,2,2,173,0
0.0378810131284,5.7908629465e-06,0.0922972856495,1.01240656486,0.57,0.45,3,3,1,174,0
1.01982256923,1.02776539723e-06,0.00463763699365,0.0156714904462,0.427,0.45,0,0,2,175,0
-0.00505803304739,0.050629588468,1.11864007765,0.29215707684,0.437,0.45,2,2,2,176,0
1.53861377129,0.134036086956,-0.00756968820076,0.159179146026,0.4,0.45,0,0,2,177,0
-0.0194650258508,0.0157644522111,0.585561868203,1.05495041841,0.435,0.45,3,3,2,178,0
0.0186714217788,1.12201348556,0.0163593267267,0.24217714823,0.482,0.45,1,1,1,179,0
1.43823535752,0.224602579108,0.107555151783,0.200830211685,0.519,0.45,0,0,1,180,0
0.0394829574145,0.111133433579,0.0651937251533,1.13817984955,0.47,0.45,3,3,1,181,0
0.0748349359677,0.0616438529462,1.00438169039,0.220421767514,0.473,0.45,2,2,1,182,0
0.137281329304,1.05468924424,0.0194809423576,0.2494363989,0.407,0.45,1,1,2,183,0
0.128337176396,0.0277276846508,1.14054882573,0.377164682824,0.384,0.45,2,2,2,184,0
0.157578026182,0.150522155252,0.0842612071254,1.13246146862,0.369,0.45,3,3,2,185,0
0.0457047170544,1.19828125746,0.0647746476447,0.250974706258,0.413,0.45,1,1,2,186,0
1.01660451566,0.256496942948,0.046127354449,0.324592900847,0.366,0.45,0,0,2,187,0
0.0655444683765,0.0901540294375,1.04999676263,0.281784108373,0.337,0.45,2,2,2,188,0
1.14926996671,0.111620814795,0.0209324915547,0.348850896416,0.37,0.45,0,0,2,189,0
0.0935003059137,1.02358786698,0.020006918764,0.26284340004,0.411,0.45,1,1,2,190,0
0.00381340601667,0.0942947080341,0.0458895636126,1.10649901394,0.374,0.45,3,3,2,191,0
1.56045418096,0.13164728435,0.046201262858,0.122618216384,0.334,0.45,0,0,2,192,0
0.104555330654,0.0534329451955,0.118861359827,1.03642177423,0.357,0.45,3,3,2,193,0
0.0435257844416,1.06782948512,0.0104386259343,0.170732576755,0.338,0.45,1,1,2,194,0
0.0186767441865,0.0140843753926,1.00623515939,0.371169221219,0.325,0.45,2,2,2,195,0
0.125286968048,1.14490329703,0.0787211325589,0.312360624252,0.406,0.45,1,1,2,196,0
0.113882111311,0.134650316779,0.0299186838755,1.12177738247,0.373,0.45,3,3,2,197,0
0.0396185374396,0.0496053966185,1.04396828419,0.178634793023,0.421,0.45,2,2,2,198,0
1.4236913068,0.161319338016,0.0583974524778,0.26713701182,0.389,0.45,0,0,2,199,0
0.0452519028661,0.0577634443881,1.02111708307,0.36206523278,0.403,0.45,2,2,2,200,0
0.032420421656,0.0716837490551,0.0108593445906,1.11134595267,0.363,0.45,3,3,2,201,0
1.29524525805,0.0673662108236,-0.0139533234312,0.135138290579,0.405,0.45,0,0,2,202,0
0.0285576070834,1.03711504956,0.00548819797407,0.155224826948,0.358,0.45,1,1,2,203,0
1.00499411477,0.00788782624117,0.015237403517,0.152186186945,0.368,0.45,0,0,2,204,0
0.0421952656171,1.00555935681,0.0155994060268,0.145270969694,0.42,0.45,1,1,2,205,0
0.0311074986149,0.108452190847,0.00886138931751,1.13914428849,0.348,0.45,3,3,2,206,0
0.0245342353967,0.0566641815389,1.10307127952,0.153487829596,0.39,0.45,2,2,2,207,0
0.0258414762767,1.02594317384,0.00812709303262,0.157887595022,0.326,0.45,1,1,2,208,0
0.0537506579099,0.0121967325388,1.08767891873,0.399304092469,0.514,0.45,2,2,1,209,0
0.0307050687982,0.0291033042877,0.0230542843771,1.07153553397,0.499,0.45,3,3,1,210,0
1.34162029615,0.0617360153869,-0.0123999983913,0.119235046108,0.336,0.45,0,0,2,211,0
0.023437758405,1.0199781368,0.0128523851344,0.149729925561,0.281,0.45,2,1,-1,212,0
1.14015364345,0.0491590587387,0.0166717469887,0.213083404075,0.384,0.45,0,0,2,213,0
0.0078133929663,0.0718398879052,0.00926359944514,1.01683853004,0.367,0.45,3,3,2,214,0
0.00781256093463,1.01175914199,0.0278834962195,0.187722190562,0.375,0.45,1,1,2,215,0
1.01494450709,0.0818876902421,0.0592896036288,0.232611874527,0.385,0.45,0,0,2,216,0
0.245308964253,1.18243352356,0.0860479855805,0.289740744784,0.415,0.45,1,1,2,217,1
0.2416098784,0.0884542118155,1.19119087941,0.347564311595,0.362,0.45,2,2,2,218,1
0.244722618635,0.0726103462264,0.0598438442178,1.09775705411,0.329,0.45,3,3,2,219,1
1.04411939805,0.174864448376,0.099020236357,0.307854993902,0.353,0.45,0,0,2,220,1
0.0552309250922,0.0496308181862,1.20989684145,0.294646186004,0.318,0.45,2,2,2,221,1
1.02738313271,0.113103634691,0.0225559283274,0.451588446802,0.341,0.45,0,0,2,222,1
0.0904962089602,0.0477621301869,0.172235098187,1.06350221148,0.354,0.45,3,3,2,223,1
0.382528649341,1.00891328175,0.127930773797,0.403389275694,0.358,0.45,1,1,2,224,1
0.0863001442509,0.0391064608089,0.0161345361743,1.00337132146,0.35,0.45,3,3,2,225,1
0.0809263861171,0.0390652825536,1.03545539746,0.170544516838,0.362,0.45,2,2,2,226,1
0.0857270178745,1.16470259864,0.0254095941984,0.308296635754,0.355,0.45,1,1,2,227,1
1.00381693517,0.0392180212208,0.0276206477296,0.289391493807,0.333,0.45,0,0,2,228,1
0.0924594837434,1.21805727894,0.0615638980491,0.26528815604,0.396,0.45,1,1,2,229,1
0.0702166073447,0.0275910139227,1.05896235235,0.125646649907,0.404,0.45,2,2,2,230,1
0.0657543001106,0.0993500948447,0.0756517371364,1.08909736202,0.361,0.45,3,3,2,231,1
1.06398325757,0.0648009330852,0.0173632645653,0.123912422957,0.362,0.45,0,0,2,232,1
0.118127521387,0.0901826488564,0.17357538171,1.18494466007,0.387,0.45,3,3,2,233,1
0.0962795609667,0.0819250915218,1.20166419778,0.20680356748,0.437,0.45,2,2,2,234,1
1.21234480128,0.0653509239184,0.101848498348,0.231532318408,0.373,0.45,0,0,2,235,1
0.0639936655727,0.0385985018305,1.04434494658,0.298585943848,0.333,0.45,2,2,2,236,1
0.0779836046029,1.07543765398,0.0655644862822,0.271247639051,0.319,0.45,1,1,2,237,1
1.57305324576,0.136455895498,0.0986168873194,0.299429523665,0.353,0.45,0,0,2,238,1
0.192049358699,1.09607659179,0.070010765119,0.144223777147,0.412,0.45,1,1,2,239,1
0.074925799439,0.0647491922444,0.0460014969022,1.21733641873,0.333,0.45,3,3,2,240,1
0.072212084309,1.20933694031,0.0558669293731,0.168688214946,0.425,0.45,1,1,2,241,1
0.07496511485,0.0992183735818,0.00625754801768,1.25446083098,0.343,0.45,3,3,2,242,1
3.14425786524,0.0653802787753,-0.00235619175871,0.157774484033,0.358,0.45,0,0,2,243,1
0.14194452216,0.119097915033,1.14274625518,0.315555352386,0.334,0.45,2,2,2,244,1
0.142707342834,0.144968383333,0.143724572924,1.20269850467,0.359,0.45,3,3,2,245,1
0.0691713918214,0.0474449689585,1.05228471992,0.239201948436,0.433,0.45,2,2,2,246,1
1.28358443924,0.0734481048659,0.122161015423,0.292422663611,0.407,0.45,0,0,2,247,1
0.0746735789595,0.0761437128512,0.460202446077,1.08350887506,0.416,0.45,3,3,2,248,1
0.0573213093562,1.13130208933,0.00279786688862,0.217549396083,0.373,0.45,1,1,2,249,1
1.35114739795,0.0863641249876,0.00551880815013,0.246983840344,0.479,0.45,0,0,1,250,1
0.157662082138,1.01199463053,0.0372835235309,0.326657799179,0.56,0.45,1,1,1,251,1
0.0495563276714,0.0624724663408,1.04238598051,0.312212397427,0.493,0.45,2,2,1,252,1
0.184613899427,1.04378608553,0.0651139026923,0.196496321721,0.479,0.45,1,1,1,253,1
0.0580629041493,0.0387854500685,0.0475794179627,1.13009847529,0.409,0.45,3,3,2,254,1
1.14408513626,0.0524259072939,0.00367359744148,0.165221998486,0.332,0.45,0,0,2,255,1
0.0571762438803,0.0218449945117,1.00034393115,0.249748180507,0.308,0.45,2,2,2,256,1
1.00547324751,0.0607735151734,0.0351524142574,0.219259289821,0.364,0.45,0,0,2,257,1
0.0583435552595,0.026034711973,0.0169485011429,1.16319209891,0.397,0.45,3,3,2,258,1
0.0627686845618,0.0585589600098,1.07909925639,0.164713112193,0.528,0.45,2,2,1,259,1
0.0649814222848,0.136969062016,0.0298684993658,1.41644046391,0.686,0.45,3,3,1,260,1
0.0664517211965,1.12246428244,0.00506169545891,0.0903056914916,0.406,0.45,1,1,2,261,1
1.12359081659,0.0235150983465,0.000674850825905,0.11078840659,0.343,0.45,0,0,2,262,1
0.0771636234406,0.11079394788,-0.0154660110849,0.210766263708,0.7,0.45,1,-1,0,264,1
0.0682778310641,1.15574159431,0.000793031274497,0.154520702002,0.187,0.45,2,1,-1,264,1
0.379074833216,1.20992733976,0.0565799264154,0.067647263403,0.389,0.45,1,1,2,265,1
1.05623376954,0.0401174679923,0.0558381746688,0.097558828014,0.392,0.45,0,0,2,266,1
0.193205569193,0.114673293836,0.0222611926903,1.08644991685,0.349,0.45,3,3,2,267,1
0.0625621274794,0.0940933359337,1.21767537258,0.262516039237,0.462,0.45,2,2,1,268,1
0.0604163378759,0.0628739694691,0.00758259416573,1.4013556792,0.503,0.45,3,3,1,269,1
1.13454319925,0.18990779019,0.0140138038404,0.116276982583,0.389,0.45,0,0,2,270,1
0.0524010898063,0.0720750460842,1.12024485369,0.245793376161,0.34,0.45,2,2,2,271,1
0.0828058434153,1.16717983565,0.0152669062349,0.220699656415,0.311,0.45,1,1,2,272,1
0.0532321630823,0.0324714344991,1.00498362315,0.132861661654,0.337,0.45,2,2,2,273,1
1.43056017023,0.0180045112032,0.0363465350996,0.107562601101,0.327,0.45,0,0,2,274,1
0.0573806022587,1.09228491531,0.00502702557276,0.111324617557,0.408,0.45,1,1,2,275,1
0.0598686025658,0.036051230573,0.0361790752612,1.07117054905,0.357,0.45,3,3,2,276,1
0.0634894732137,1.06590908289,0.00301490557874,0.0607387525334,0.326,0.45,1,1,2,277,1
0.06303488978,0.0331472463943,0.23572077899,1.03491165519,0.355,0.45,3,3,2,278,1
0.0637582053414,0.0272786231043,1.11211850193,0.105369013721,0.334,0.45,2,2,2,279,1
1.35671838214,0.0669635237319,0.00782255976588,0.0910826130884,0.355,0.45,0,0,2,280,1
0.0441204929494,0.0195917788053,1.09013820088,0.169591323085,0.331,0.45,2,2,2,281,1
0.0536924960142,0.047205528546,0.0129125865146,1.12462500051,0.375,0.45,3,3,2,282,1
1.20414807981,0.167262727266,0.00712622776648,0.20788145838,0.362,0.45,0,0,2,283,1
0.080651424857,0.0458372851249,0.607183263394,1.03873229499,0.405,0.45,3,3,2,284,1
0.188876066763,1.05101221979,-0.0068462275046,0.130745415638,0.395,0.45,1,1,2,285,1
0.0711915329103,0.0574508153903,1.12930124331,0.15374584119,0.355,0.45,2,2,2,286,1
0.111454638897,1.24806042396,0.00626777222301,0.107731205071,0.354,0.45,1,1,2,287,1
1.38240015066,0.0392112065113,0.0247435400947,0.115933146557,0.34,0.45,0,0,2,288,1
0.0359536065776,1.24011833419,0.0132927194087,0.115529791578,0.425,0.45,1,1,2,289,1
0.0465088551184,1.0130993535,0.0116960920679,0.146423117601,0.403,0.45,2,1,-1,290,1
0.0391480863861,0.0712253492484,0.039394577522,1.08070280597,0.449,0.45,3,3,2,291,1
1.0237330513,0.0573802088377,0.0260838173771,0.0696487544365,0.391,0.45,0,0,2,292,1
0.115166982177,0.0670675445204,1.11235564035,0.177531284674,0.369,0.45,2,2,2,293,1
1.16852926766,0.107647687572,0.000151394628864,0.206716178953,0.435,0.45,0,0,2,294,1
0.0881228841117,0.0175468827609,1.67415125916e-05,1.12327405246,0.407,0.45,3,3,2,295,1
0.0910198253706,0.0565599554581,1.2129243135,0.222204389371,0.598,0.45,2,2,1,296,1
0.0959699249262,1.04206547859,0.0156401351645,0.223057851003,0.508,0.45,1,1,1,297,1
1.10150769849,0.0663615290196,0.0156255068044,0.278209858459,0.394,0.45,0,0,2,298,1
0.107604595638,1.39230976586,0.0156042158114,0.179861810794,0.422,0.45,1,1,2,299,1
0.0854984259316,0.0252415059245,0.0148309234448,1.05737324597,0.403,0.45,3,3,2,300,1
0.0906971585905,1.05037841006,0.0870124381067,0.164816836908,0.455,0.45,1,1,1,301,1
0.295390902762,0.142901195051,1.0759422561,0.282601069087,0.53,0.45,2,2,1,302,1
1.30351261906,0.175615515878,0.144239106986,0.272864080838,0.421,0.45,0,0,2,303,1
0.170402292858,0.169137023249,0.0754617944946,1.00359164392,0.416,0.45,3,3,2,304,1
0.0940505965979,0.0609628374667,1.14026140835,0.190545870315,0.443,0.45,2,2,2,305,1
0.176496371432,0.202478434449,0.0751160586745,1.09599133529,0.547,0.45,3,3,1,306,1
1.25411317426,0.101248798109,0.0107310266861,0.178158838902,0.407,0.45,0,0,2,307,1
0.145082108375,1.38151746584,0.052841785891,0.214165809644,0.349,0.45,1,1,2,308,1
1.3669573299,0.347055956002,0.0194729819985,0.136629998342,0.408,0.45,0,0,2,309,1
0.115526441863,0.0815478118451,1.08304950374,0.338103728603,0.472,0.45,2,2,1,310,1
0.110155078193,1.04493714642,0.0263565690522,0.171751782969,0.371,0.45,1,1,2,311,1
0.138461550875,0.198188582101,0.0114136514399,1.03857085256,0.354,0.45,3,3,2,312,1
0.163931113531,1.08261503345,0.00267645823347,0.1026085217,0.429,0.45,1,1,2,313,1
0.0978899408426,0.0709153473275,1.01640486365,0.209179256365,0.364,0.45,2,2,2,314,1
0.118556501041,0.0813717172901,0.00784706692869,1.08275452132,0.38,0.45,3,3,2,315,1
1.1272505001,0.153026260957,0.0137176450998,0.152879622685,0.286,0.45,0,0,2,316,1
0.069214337461,0.0672755133423,0.102093015389,1.04073023655,0.421,0.45,3,3,2,317,1
0.0496281876813,0.0714292538185,1.01305219084,0.198573489181,0.414,0.45,2,2,2,318,1
1.39899533502,0.218620846279,0.0218420910909,0.142893190999,0.365,0.45,0,0,2,319,1
0.0703909164552,1.13679243319,0.0340356860489,0.144296844708,0.405,0.45,1,1,2,320,1
0.0680803500675,0.0404616182172,0.0887226656962,1.03650136429,0.38,0.45,3,3,2,321,1
0.0707889500966,1.08770546006,0.0812236740789,0.110469875908,0.413,0.45,1,1,2,322,1
1.53603352907,0.234345928921,0.16665944298,0.225376626799,0.42,0.45,0,0,2,323,1
0.0985881169523,0.0808610700199,1.06950951316,0.188041955847,0.38,0.45,2,2,2,324,1
0.111441710854,1.08963133143,0.0100902863676,0.128973990613,0.321,0.45,1,1,2,325,1
1.10642789278,0.125380280831,0.0249862862543,0.128615372214,0.352,0.45,0,0,2,326,1
0.156511465391,0.123053689565,0.0408827598166,1.07129705477,0.403,0.45,3,3,2,327,1
0.123968515497,0.0567624904751,1.1219295915,0.271802166665,0.487,0.45,2,2,1,328,1
1.39431200088,0.101483513369,0.0406574851977,0.189034475815,0.431,0.45,0,0,2,329,1
0.104096459358,0.0650459901728,1.14404342707,0.167623374622,0.414,0.45,2,2,2,330,1
0.110829019562,0.117262471971,0.0175296519249,1.07417550618,0.42,0.45,3,3,2,331,1
1.18425967847,0.18657753843,0.0299196096832,0.119758819062,0.431,0.45,0,0,2,332,1
1.11097415128,0.130777378089,0.160256884725,0.163400503426,0.452,0.45,1,0,-1,333,1
0.0609579762158,0.0425177838147,0.0363295118512,1.04651106131,0.439,0.45,3,3,2,334,1
0.0759760165122,1.12209286172,0.0633454075196,0.0624616443439,0.399,0.45,1,1,2,335,1
0.0759741946254,0.0506922854393,1.16789405614,0.120160006943,0.312,0.45,2,2,2,336,1
0.143205999389,1.06486720576,0.062949455091,0.0952851730816,0.396,0.45,1,1,2,337,1
0.0759992946527,0.131647970637,0.0254604712365,1.03226149409,0.377,0.45,2,3,-1,338,1
0.072606326459,0.109490988898,0.0475990278002,1.06014047333,0.431,0.45,3,3,2,339,1
2.6236706591,0.145689949676,0.0878739519891,0.0706867170489,0.373,0.45,0,0,2,340,1
0.0347510049893,0.072065426571,0.0282474219307,0.166899024518,0.7,0.45,3,-1,0,342,1
0.0626003541014,0.376204211532,1.15503149808,0.0680709038626,0.47,0.45,2,2,1,342,1
0.0420560240607,1.03853949072,0.00014747721026,0.140090314917,0.336,0.45,0,1,-1,343,1
0.0648857224319,0.050881690328,1.13610815749,0.130703672119,0.397,0.45,2,2,2,344,1
0.0709440412595,1.06762688821,0.023476422076,0.178666052605,0.312,0.45,1,1,2,345,1
0.0654798575229,0.042874406917,0.0611459786676,1.0985509037,0.414,0.45,3,3,2,346,1
0.0691800507408,1.11931368517,0.0254148965703,0.0626111411177,0.379,0.45,1,1,2,347,1
1.21654934142,0.057084001874,0.0978911930058,0.077128361558,0.389,0.45,0,0,2,348,1
0.100548346518,1.06329171761,0.122993737285,0.189234245426,0.387,0.45,1,1,2,349,1
0.0521655210565,0.0634265967727,1.00783911457,0.118516798039,0.363,0.45,2,2,2,350,1
1.18254120686,0.182870712482,0.0809390277769,0.0742472310327,0.368,0.45,0,0,2,351,1
0.130727464924,0.226874041853,0.0557277975312,0.077305683143,0.7,0.45,3,-1,0,353,1
0.0850832814689,0.0763573331731,1.11534438592,0.130644464014,0.407,0.45,2,2,2,353,1
0.105773782558,0.0614659833,0.0279936088723,1.14711738446,0.47,0.45,3,3,1,354,1
1.38352948497,0.0744642797341,0.122797125423,0.256882967494,0.398,0.45,0,0,2,355,1
0.0854779652272,0.0870564717634,1.00081396275,0.285831484163,0.366,0.45,2,2,2,356,1
0.156732476409,1.07930681142,0.0792885847526,0.261394257567,0.344,0.45,1,1,2,357,1
0.105394084331,0.0534580552735,0.319433532878,1.17803085104,0.409,0.45,3,3,2,358,1
0.106807873694,1.09399448131,0.241434940977,0.222902756255,0.391,0.45,1,1,2,359,1
1.37132540341,0.107931313189,0.200174919307,0.297034786747,0.356,0.45,0,0,2,360,1
0.176349232772,1.02333093733,0.157022196261,0.280862191549,0.443,0.45,1,1,2,361,1
0.111790553292,0.0309393687148,0.0743986855197,1.12210253934,0.385,0.45,3,3,2,362,1
0.119383638207,0.0678973526865,1.05924331309,0.281686810189,0.312,0.45,2,2,2,363,1
1.03322670741,0.0976266287423,0.162974273464,0.351299118234,0.298,0.45,0,0,2,364,1
0.146640097596,0.0578468436316,1.03385807031,0.236218076724,0.342,0.45,2,2,2,365,1
0.178451072801,0.252964562789,0.035405398238,1.1747238179,0.371,0.45,3,3,2,366,1
1.07745255965,0.152948599039,0.0252015600929,0.227920711031,0.369,0.45,0,0,2,367,1
0.161571462354,0.0414119677217,0.123610960362,1.2265227923,0.49,0.45,3,3,1,368,1
0.191877166075,1.09048291685,0.0215005981445,0.225195420394,0.41,0.45,1,1,2,369,1
0.145360295431,0.0559466651162,1.07777541133,0.217631326378,0.336,0.45,2,2,2,370,1
1.0140840946,0.106864698945,0.211471336643,0.132104551312,0.32,0.45,1,0,-1,371,1
1.42357503281,0.108961686867,0.0880429262732,0.145236027277,0.402,0.45,0,0,2,372,1
0.351198220386,1.0984747687,0.124839247177,0.115899246374,0.393,0.45,1,1,2,373,1
1.03201057172,0.297257142892,0.03416714585,0.430745087762,0.435,0.45,0,0,2,374,1
0.143185659445,0.120545799652,1.10837100728,0.280700629612,0.479,0.45,2,2,1,375,1
0.142677593985,0.178794870225,0.0612909172691,1.25233747047,0.378,0.45,3,3,2,376,1
1.10770269075,0.13480514465,0.0135335444924,0.179885271467,0.348,0.45,0,0,2,377,1
0.22676797343,0.24952142666,0.0267297454198,1.14113690513,0.433,0.45,3,3,2,378,1
0.182696964874,0.0712365676304,1.06737720442,0.206901237325,0.528,0.45,2,2,1,379,1
0.158295265563,1.04276199359,0.0158208980601,0.296698425014,0.465,0.45,1,1,1,380,1
0.157350803032,0.0385676404113,0.0193498213731,1.1448285146,0.404,0.45,3,3,2,381,1
0.19718379498,1.06855528161,0.0254137162152,0.133023347266,0.4,0.45,1,1,2,382,1
0.137609392328,0.0605376532347,1.08859045589,0.151086186047,0.449,0.45,2,2,2,383,1
1.01111305529,0.041019127695,0.159782136253,0.0869544481399,0.392,0.45,0,0,2,384,1
0.132350926692,1.11121513172,0.0483809714629,0.243747826425,0.482,0.45,1,1,1,385,1
0.115912377692,0.0493546824132,1.0116662068,0.188688979641,0.491,0.45,2,2,1,386,1
0.110971720497,0.0325200700999,0.00897124367331,1.08703262757,0.39,0.45,3,3,2,387,1
1.53350162673,0.140777437506,0.0823784665452,0.224935983248,0.305,0.45,0,0,2,388,1
0.106816391939,0.0504643043387,1.21075265965,0.338756130216,0.342,0.45,2,2,2,389,1
1.40526439555,0.24827806868,0.0253710659006,0.124840979474,0.311,0.45,0,0,2,390,1
0.102674872357,0.0532865603669,0.236734952425,1.29474452993,0.38,0.45,3,3,2,391,1
0.137807304887,1.09446782138,0.0137713287759,0.212416495612,0.34,0.45,1,1,2,392,1
0.102728018673,0.0487057155754,0.226177091234,1.01040815159,0.339,0.45,3,3,2,393,1
0.106785225975,0.0602732274945,1.01468666384,0.209023361092,0.342,0.45,2,2,2,394,1
1.08142164883,0.103333251887,0.160312246574,0.325593736027,0.355,0.45,1,0,-1,395,1
1.38805518021,0.0803258773205,0.0846053154296,0.346194468391,0.341,0.45,0,0,2,396,1
1.70194352527,0.0646612085785,0.152746086145,0.276287856968,0.382,0.45,1,0,-1,397,1
0.0633107406265,0.0634522529756,1.05603547509,0.134611767609,0.417,0.45,2,2,2,398,1
1.13476741179,0.104558325896,0.113240977097,0.0742702490282,0.349,0.45,0,0,2,399,1
0.0936504336217,0.056583592222,0.282674915059,1.21997265088,0.388,0.45,3,3,2,400,1
0.109472318603,0.0566959105863,1.11561136286,0.22055816279,0.344,0.45,2,2,2,401,1
0.149169351293,0.0852118947636,0.103953014655,1.11974983557,0.383,0.45,3,3,2,402,1
1.43034308215,0.0783072086507,0.0106662204568,0.15755929672,0.376,0.45,0,0,2,403,1
0.106565208919,1.00995111365,0.162522164415,0.115902680619,0.411,0.45,1,1,2,404,1
0.112077382661,0.0242827815732,0.0524508665483,1.08001467449,0.349,0.45,3,3,2,405,1
0.122462188493,1.173240059,0.0387589844946,0.0911120868255,0.441,0.45,1,1,2,406,1
3.61185340352,0.0137858431629,0.0441781483378,0.092240830543,0.409,0.45,0,0,2,407,1
0.0922228726739,0.0713281001111,1.04709462398,0.203995030342,0.388,0.45,2,2,2,408,1
0.0997493931216,1.05777989686,0.01584064784,0.146533085124,0.347,0.45,1,1,2,409,1
0.0947740362673,0.0214422855147,0.0156437119127,1.11755503565,0.354,0.45,2,3,-1,410,1
0.0882258861742,0.142863628775,0.0645238224412,1.34394857448,0.308,0.45,3,3,2,411,1
1.05209192768,0.109741667424,0.0204846129017,0.0970361203073,0.312,0.45,0,0,2,412,1
0.100519415405,0.0879674743705,0.0550668065066,1.1060402151,0.347,0.45,3,3,2,413,1
0.0899579826717,1.03939286432,0.00376197937847,0.137308496374,0.294,0.45,2,1,-1,414,1
3.44266035684,0.666087190396,0.022985976474,0.0523620655121,0.379,0.45,0,0,2,415,1
1.32335538238,0.0243655843514,0.0137336277119,0.203011862522,0.361,0.45,1,0,-1,416,1
2.29154674387,0.0708410814734,0.0496687161192,0.133090981073,0.449,0.45,0,0,2,417,1
0.0688254994927,0.0440117377475,1.03287506665,0.226366059058,0.492,0.45,2,2,1,418,1
0.100215238217,1.08130717742,-0.00687293353323,0.080382009245,0.479,0.45,1,1,1,419,1
0.118778976749,0.0236912744471,0.0169736304207,1.3252861553,0.378,0.45,3,3,2,420,1
0.146104363704,1.0594488774,0.058704118233,0.0685837638218,0.404,0.45,1,1,2,421,1
1.17233892798,0.0329893755386,0.0865204553117,0.112764921458,0.413,0.45,0,0,2,422,1
0.158504787385,0.0850124370678,1.06610873937,0.348535026491,0.435,0.45,2,2,2,423,1
0.246887348682,0.216678799892,0.0481706124406,1.28259247218,0.342,0.45,3,3,2,424,1
0.157294863606,0.0574482936373,1.07947870436,0.21918356959,0.476,0.45,2,2,1,425,1
1.05691248609,0.0912973275733,0.04755037659,0.239506193119,0.417,0.45,0,0,2,426,1
0.134130462875,0.0412726506791,0.00796379653712,1.0627674959,0.418,0.45,3,3,2,427,1
1.35389742627,0.22164240711,-0.00635564409459,0.144922228352,0.433,0.45,0,0,2,428,1
0.177242695339,1.02609163259,0.0168387645852,0.197461949544,0.41,0.45,1,1,2,429,1
0.178444642307,0.0236048791461,0.00188971156834,1.02495946827,0.367,0.45,3,3,2,430,1
0.184353615968,1.12322820815,0.0153509791742,0.110151923829,0.373,0.45,1,1,2,431,1
0.181141520069,0.0298410525271,1.02814641236,0.128833083466,0.376,0.45,2,2,2,432,1
0.179048382951,1.26167693624,-0.00690954915731,0.108852067082,0.344,0.45,1,1,2,433,1
0.266515273456,0.11439947111,0.0670230151417,1.32040260431,0.456,0.45,3,3,1,434,2
0.740167233101,1.11343409606,0.00682307415991,0.0879583138085,0.442,0.45,1,1,2,435,2
1.26911589212,0.0643488985396,0.0283308540953,0.05720145793,0.38,0.45,0,0,2,436,2
0.0796070327664,0.00811283974221,1.04606654898,0.130329715205,0.314,0.45,2,2,2,437,2
1.07653730027,0.581782087687,0.0212410889633,0.0547577911657,0.335,0.45,0,0,2,438,2
0.0549192330243,1.06955851406,0.0287766467115,0.184123134305,0.341,0.45,1,1,2,439,2
0.0544744757805,0.0832012155814,0.00995723858627,1.00431199454,0.303,0.45,2,3,-1,440,2
0.0630623216662,0.0393034197598,1.1016481956,0.125961434047,0.445,0.45,3,2,-1,441,2
1.17893094853,0.0518766085376,0.00781873890471,0.0451390129754,0.417,0.45,0,0,2,442,2
0.0754431174804,0.058780472643,1.02162380037,0.149279622494,0.376,0.45,3,2,-1,443,2
0.0872853885316,0.32599521246,1.003742353,0.153134620798,0.47,0.45,2,2,1,444,2
0.0505651107674,1.10019053817,-0.0076468125426,0.175061310329,0.385,0.45,1,1,2,445,2
0.0491260424391,0.0618375747725,0.0185262020409,1.02075860905,0.335,0.45,3,3,2,446,2
0.237122602858,1.31842553116,0.0836794477225,0.145108896914,0.401,0.45,1,1,2,447,2
0.0400193909785,0.418104876832,1.28933488527,0.110985484595,0.42,0.45,2,2,2,448,2
1.3239357054,0.127338614157,0.0774988040758,0.0544969435488,0.369,0.45,0,0,2,449,2
0.0707862284987,0.0542982541804,1.0107136865,0.193427315834,0.377,0.45,2,2,2,450,2
0.0859479072621,1.14321429626,0.0156829423707,0.0856208204492,0.368,0.45,1,1,2,451,2
1.49024633036,0.0776994905925,0.0156290925782,0.0479975000321,0.407,0.45,0,0,2,452,2
1.33841485274,0.0814041099457,0.0725145502598,0.129344290054,0.409,0.45,1,0,-1,453,2
0.0599723604506,0.0248496015832,0.0435757883915,1.02063413242,0.416,0.45,3,3,2,454,2
0.0673287981613,0.067491535855,1.06849380742,0.0445898412284,0.374,0.45,2,2,2,455,2
0.065130646147,0.0365869827832,-0.0155420382422,1.06514894032,0.418,0.45,3,3,2,456,2
1.04802120145,0.12619123381,0.0339326262781,0.262779340996,0.384,0.45,0,0,2,457,2
0.046335736776,0.085899268606,0.00981839434582,1.04574052102,0.39,0.45,3,3,2,458,2
1.23120588884,0.0834372871032,0.00800650094852,0.0765313388664,0.442,0.45,0,0,2,459,2
0.0641266714921,1.06748107151,0.0168180847178,0.142390754651,0.434,0.45,1,1,2,460,2
0.0605566330283,0.0457016734419,1.06607100886,0.15970722027,0.392,0.45,2,2,2,461,2
1.18183776845,0.0243365080504,0.0525708448687,0.0406512922415,0.359,0.45,0,0,2,462,2
0.0674943577332,0.0237276388941,1.06841888828,0.0880386806809,0.358,0.45,2,2,2,463,2
0.071210967527,1.03156864272,0.015039313686,0.0525582436916,0.324,0.45,1,1,2,464,2
0.0705790522045,0.0158043421486,0.00830722554267,1.11787112457,0.356,0.45,3,3,2,465,2
0.0735861524051,1.19786212394,0.00621300530693,0.0515933213099,0.368,0.45,1,1,2,466,2
2.54725320859,0.0294139908904,0.0144671975927,0.0698551964552,0.397,0.45,0,0,2,467,2
0.0471395405386,0.0115713253,0.036422597333,1.29163791606,0.425,0.45,3,3,2,468,2
0.0545530896833,0.0559628930137,1.04419613726,0.0880870782153,0.473,0.45,2,2,1,469,2
0.0536824255623,0.108083507559,-0.0078062149524,0.131505199998,0.7,0.45,3,-1,0,471,2
0.0558141237936,0.125780996123,-0.00780905030289,1.37283406942,0.176,0.45,0,3,-1,471,2
0.0484997326522,1.00203592552,0.0213216975403,0.0980417377033,0.329,0.45,2,1,-1,472,2
0.0413142537336,1.31424537536,1.70305486806e-05,0.109938684667,0.321,0.45,1,1,2,473,2
0.045185418622,0.0216940066946,1.06656786464,0.0492261717295,0.337,0.45,2,2,2,474,2
1.07629031484,0.0396412319073,0.0633312752136,0.0296096909381,0.357,0.45,0,0,2,475,2
0.0293094872904,1.08290475777,0.0293083579937,0.0786001368758,0.508,0.45,1,1,1,476,2
0.03590762713,0.0401372088692,0.0472030612705,1.06986567088,0.411,0.45,3,3,2,477,2
0.0401560090001,1.20635636923,0.0477145061233,0.0625028846789,0.418,0.45,1,1,2,478,2
4.26561091283,0.0508490213312,0.057950356591,0.147878873768,0.443,0.45,0,0,2,479,2
0.032379978801,0.0448374718519,0.0708597000014,1.11700326974,0.399,0.45,3,3,2,480,2
0.0441836903897,0.082537101309,1.14508452252,0.352249023448,0.467,0.45,2,2,1,481,2
0.0394444577497,0.215619620117,-0.00644396468227,1.12600397531,0.49,0.45,3,3,1,482,2
0.0413917295669,1.0612000029,-0.00768317498953,0.0947844243332,0.39,0.45,1,1,2,483,2
3.23484833904,0.0329457013485,0.0450492974003,0.122492401458,0.424,0.45,0,0,2,484,2
0.0348348522432,0.032501544896,1.25521534429,0.207223457459,0.365,0.45,2,2,2,485,2
0.026843753447,1.06282422589,0.00805177615077,0.136962963737,0.306,0.45,1,1,2,486,2
0.027656109244,0.0103508564798,1.1547580219,0.119187156996,0.327,0.45,2,2,2,487,2
1.18307371603,0.0900769696707,0.00251695702175,0.0629464851513,0.316,0.45,0,0,2,488,2
0.0244651111353,1.1406016475,0.0231538256785,0.089389906778,0.374,0.45,1,1,2,489,2
0.0192123490525,0.0369219104865,0.0159633969147,1.18223285892,0.357,0.45,3,3,2,490,2
1.03663251656,0.0773793024231,0.0058931790205,0.0684417462981,0.389,0.45,0,0,2,491,2
0.123117804585,0.050348163183,0.0234149559486,1.11240100987,0.416,0.45,3,3,2,492,2
0.0591194864968,0.0471830591099,1.09942896886,0.156622876146,0.384,0.45,2,2,2,493,2
0.0563524791288,0.0178385778258,-0.00769372452301,1.32831524355,0.435,0.45,3,3,2,494,2
0.0562498679876,0.0158764486101,1.04666509866,0.108066280538,0.435,0.45,2,2,2,495,2
1.16637924265,0.0901432286952,0.00413378117363,0.0464532651905,0.404,0.45,0,0,2,496,2
0.0250067975669,1.0263221144,0.000545473532321,0.105829482138,0.332,0.45,1,1,2,497,2
1.05716193101,0.0146628531451,-0.0135965149215,0.0381343352626,0.37,0.45,0,0,2,498,2
0.0311665796371,0.0204854794949,1.08471309458,0.0702430578885,0.363,0.45,2,2,2,499,2
0.034535888083,1.04905418062,-0.0147016882119,0.0487776941286,0.369,0.45,1,1,2,500,2
0.0324981097091,0.0386152281715,0.00756640756401,1.14160671875,0.353,0.45,3,3,2,501,2
1.17849195737,0.0787489513019,-0.00981111019494,0.0231167945151,0.355,0.45,0,0,2,502,2
0.0289768299897,0.0267405209948,1.00921407806,0.17940600054,0.356,0.45,3,2,-1,503,2
0.153138157548,1.06749007002,-0.00656386541158,0.0467555798992,0.366,0.45,1,1,2,504,2
0.0304027079139,0.0254975613506,1.02307295381,0.0844993429012,0.322,0.45,2,2,2,505,2
0.0258513948792,0.0563745442403,0.00783824788265,1.19438696741,0.389,0.45,3,3,2,506,2
1.12160903398,0.12949695758,0.0807427202601,0.173994061493,0.353,0.45,0,0,2,507,2
0.00597509896591,0.0173430513331,1.0268985361,0.177452681637,0.37,0.45,2,2,2,508,2
0.0233936507461,1.08978252399,0.0228768365004,0.136996880039,0.398,0.45,1,1,2,509,2
1.26666102371,0.0268387816147,0.0415092834049,0.067179364768,0.354,0.45,0,0,2,510,2
0.112527780089,1.14734924561,0.0367543937038,0.087765710177,0.456,0.45,1,1,1,511,2
0.0492534246379,0.0199752437638,1.03961025334,0.088036765285,0.449,0.45,2,2,2,512,2
1.08948719988,0.0160136717771,0.0166201201176,0.10078683948,0.406,0.45,0,0,2,513,2
0.00488055930099,0.0156706628304,0.0226539984725,1.00601415453,0.394,0.45,3,3,2,514,2
0.0295286323417,1.15675281631,0.015706798514,0.0993826911539,0.411,0.45,1,1,2,515,2
0.00538319444758,0.00033419426298,0.00378305613815,1.02393146679,0.45,0.45,3,3,1,516,2
0.0153985784703,0.0673626493591,1.13591256925,0.102335383774,0.457,0.45,2,2,1,517,2
0.016743600566,0.0665921044654,0.0132563754336,1.04549910258,0.465,0.45,3,3,1,518,2
0.0195277969301,1.16537598154,0.00799833940677,0.420125608073,0.436,0.45,1,1,2,519,2
0.0180080938647,0.0264040925122,1.00894593053,0.194703723905,0.403,0.45,2,2,2,520,2
1.46992983523,0.088500068832,0.0235370371176,0.143566842942,0.414,0.45,0,0,2,521,2
0.0290366078175,1.0498210604,0.0268736584274,0.161783338114,0.289,0.45,1,1,2,522,2
2.23340089088,0.0388192307632,0.0902083448182,0.247704895245,0.434,0.45,0,0,2,523,2
0.0279234539596,0.0417937882312,1.05668044593,0.250074165638,0.4,0.45,2,2,2,524,2
0.0440494035687,1.19757346969,-0.00775556594858,0.237184995329,0.334,0.45,1,1,2,525,2
0.0426455295298,0.0234598414602,-0.00697849442666,1.19070302479,0.329,0.45,3,3,2,526,2
0.0424857611114,0.157000087947,1.03107046352,0.048365573026,0.449,0.45,2,2,2,527,2
0.0422344711764,0.0781103847884,0.00785951073808,1.14610081074,0.526,0.45,3,3,1,528,2
1.08287091297,0.129706758607,0.0148467435304,0.135313558358,0.415,0.45,0,0,2,529,2
0.00316363661677,0.028067074769,0.0444392729246,1.09386118574,0.44,0.45,3,3,2,530,2
0.0177611338519,1.17774866737,0.0117721836842,0.127665190713,0.33,0.45,1,1,2,531,2
1.02447494506,0.178295123018,0.0148929742273,0.114379531132,0.407,0.45,0,0,2,532,2
0.0355511551423,0.0514586941845,1.04097147723,0.130456521488,0.353,0.45,2,2,2,533,2
0.0349824742316,1.1146576864,0.000354220751245,0.120268999806,0.314,0.45,0,1,-1,534,2
0.58733400168,1.08619294033,0.00657410588899,0.123996277632,0.437,0.45,1,1,2,535,2
0.0290759810683,0.224372578853,1.11716511008,0.0977430012966,0.474,0.45,2,2,1,536,2
0.0344227785688,1.11218140936,0.0163315883978,0.109297154289,0.533,0.45,1,1,1,537,2
0.0279860315881,0.0235103379244,0.0305637971208,1.05999775431,0.463,0.45,3,3,1,538,2
0.0284076238992,0.0552161582585,1.08763465073,0.0841175624896,0.439,0.45,2,2,2,539,2
0.0299536426478,0.0374342425282,0.00795627131635,1.01878368677,0.417,0.45,3,3,2,540,2
1.20865088906,0.0619606375021,0.00764846995534,0.161661950072,0.44,0.45,0,0,2,541,2
0.0270342426964,0.0222376715152,0.00779273118962,1.15842176902,0.421,0.45,3,3,2,542,2
1.05398096435,0.0194564204335,0.01793792392,0.104283125123,0.357,0.45,0,0,2,543,2
0.0780121401168,1.19239268272,0.00118180633021,0.156334411634,0.469,0.45,1,1,1,544,2
0.0735521474299,0.0235019044493,1.03834756553,0.127046662708,0.371,0.45,2,2,2,545,2
1.14573925739,0.0282857035278,0.0222754214995,0.197609093783,0.351,0.45,0,0,2,546,2
0.0755585843459,0.059322184599,1.19174654453,0.113289571275,0.501,0.45,2,2,1,547,2
0.0740210164882,1.01856593372,0.00815747076191,0.111580191514,0.405,0.45,1,1,2,548,2
0.0701537976867,0.0237273186485,0.00784304831986,1.02912934423,0.384,0.45,3,3,2,549,2
0.0732693547492,0.0121894368578,1.11856962141,0.118612554359,0.371,0.45,2,2,2,550,2
0.0752468695909,0.00281400174189,1.70438518529e-05,0.140877346649,0.7,0.45,3,-1,0,552,2
0.170366225136,1.0297403629,0.0199178391697,0.118527893887,0.437,0.45,1,1,2,552,2
1.01664428871,0.0611230435237,0.0206801198584,0.142920215737,0.362,0.45,0,0,2,553,2
0.0317829556888,0.0740061262594,0.141194743766,1.01782262053,0.405,0.45,3,3,2,554,2
0.0317384651151,1.08803082373,0.00416583332166,0.130823047799,0.361,0.45,1,1,2,555,2
2.97148200308,0.116797518728,0.018427632649,0.0620416652756,0.338,0.45,0,0,2,556,2
0.0490568933852,0.0649807612925,1.13444087851,0.126358069259,0.403,0.45,2,2,2,557,2
0.061321992138,1.25627042805,0.00804656177418,0.135224204524,0.33,0.45,1,1,2,558,2
0.0635713554379,0.00927075725865,1.03945939942,0.412969171155,0.432,0.45,2,2,2,559,2
1.52996339159,0.0203273387795,0.0258287280087,0.136593785668,0.376,0.45,0,0,2,560,2
0.0308609590173,0.0510881450562,0.0390509099324,1.0258308294,0.405,0.45,3,3,2,561,2
1.20302078035,0.102041457305,0.0623380277902,0.104236231256,0.41,0.45,0,0,2,562,2
0.0406743539731,1.15752038999,0.0570038571286,0.128732386887,0.417,0.45,1,1,2,563,2
0.0251731956554,0.0303135613962,0.0292303448281,1.00991866364,0.415,0.45,3,3,2,564,2
0.0240077311772,0.0174391791447,1.06459732388,0.127273461641,0.338,0.45,2,2,2,565,2
0.0280238172648,0.106117580849,0.00718214609819,0.196292352932,0.7,0.45,3,-1,0,567,2
0.025549679622,1.08618869664,0.0242344264137,0.165506525682,0.442,0.45,1,1,2,567,2
1.0363977454,0.0947398736448,0.138689946134,0.139298890895,0.477,0.45,0,0,1,568,2
0.047928357576,0.149174245383,1.05293733768,0.180213155206,0.489,0.45,2,2,1,569,2
1.09632826684,0.135640189704,0.0480338031417,0.195453970751,0.452,0.45,0,0,1,570,2
0.113401662319,1.19223400517,0.0487470914566,0.203096152718,0.402,0.45,1,1,2,571,2
0.057892400274,0.0816583472273,1.10571154245,0.191908897826,0.367,0.45,2,2,2,572,2
0.0898182308209,0.11443859177,0.00628199661404,0.199032554778,0.7,0.45,3,-1,0,574,2
0.0419383582916,0.152431951287,1.04719590789,0.212338558073,0.364,0.45,2,2,2,574,2
0.0310117703856,1.26796068254,0.0252374625061,0.232176936243,0.327,0.45,1,1,2,575,2
0.168889543588,0.1142986496,0.0550651999002,1.03670321564,0.417,0.45,3,3,2,576,2
1.2842669571,0.1859223069,0.0273477497236,0.157950002747,0.386,0.45,0,0,2,577,2
0.0368625576009,0.0594533236928,0.0433051866742,1.00789852225,0.404,0.45,3,3,2,578,2
1.11465269958,0.551492271265,0.0112135577258,0.122119307325,0.397,0.45,0,0,2,579,2
0.068038426829,0.0174769645805,1.2853710902,0.172453056932,0.33,0.45,2,2,2,580,2
0.117737201965,1.09055614236,0.0448920551045,0.192131683042,0.336,0.45,1,1,2,581,2
1.06728499887,0.0404372375278,0.0534455975158,0.0793423466149,0.386,0.45,0,0,2,582,2
0.113450869633,1.27048358615,0.101856742298,0.183763166839,0.437,0.45,1,1,2,583,2
0.0567131067868,1.04921911726,0.0326575589545,0.202762371829,0.348,0.45,2,1,-1,584,2
1.06835089071,0.0648491306725,0.0886652702011,0.169545079529,0.378,0.45,0,0,2,585,2
0.0755980921421,0.0783099885098,0.0182144696988,0.162911456058,0.7,0.45,3,-1,0,587,2
0.094250070675,1.07100645118,0.0385907173711,0.142152559463,0.365,0.45,1,1,2,587,2
0.0462165832569,0.0980059331405,0.0101188617387,0.190819482759,0.7,0.45,3,-1,0,589,2
0.0857104285151,0.185583472968,0.00555473252702,1.02574096119,0.18,0.45,2,3,-1,589,2
0.0594614926008,0.0560013926166,0.133290606963,1.08382966511,0.427,0.45,3,3,2,590,2
0.0594431381776,0.0453886131212,1.09125249549,0.139419592212,0.481,0.45,2,2,1,591,2
0.0498357847755,1.09652615027,0.000126680520153,0.142360515653,0.387,0.45,1,1,2,592,2
1.10308831769,0.0765805919183,1.10737097123e-05,0.103413778653,0.327,0.45,0,0,2,593,2
0.0537556238601,0.076273839183,1.01563944474,0.0871631070418,0.369,0.45,2,2,2,594,2
1.11086117224,0.253403195724,0.00823452996716,0.110932176655,0.394,0.45,0,0,2,595,2
1.27767520066,0.0514140615672,0.00784897682085,0.11093037561,0.443,0.45,1,0,-1,596,2
0.0741582183127,0.148364246129,0.00781434713548,0.189365767091,0.7,0.45,3,-1,0,598,2
1.13085890399,0.0301804403107,0.00781297591261,0.104935348533,0.441,0.45,0,0,2,598,2
0.0575895795514,0.114573714586,0.00591375607492,0.0921176675424,0.7,0.45,3,-1,0,600,2
0.0636055363943,1.0249002674,0.0131383673388,0.0765979580866,0.404,0.45,1,1,2,600,2
0.0649896316754,0.0416713386675,1.12538716585,0.0933257915774,0.423,0.45,2,2,2,601,2
0.186256045581,0.114184023958,0.0582545016847,1.08633368585,0.369,0.45,3,3,2,602,2
1.24672441648,0.0693872373179,0.0554891314822,0.123562231696,0.349,0.45,0,0,2,603,2
0.0966148514052,0.0689564865944,1.11515290491,0.235676003985,0.367,0.45,2,2,2,604,2
0.205704984237,1.13888840892,0.178915246533,0.2325401051,0.394,0.45,1,1,2,605,2
1.15522614755,0.156555813322,0.196439647358,0.20035377967,0.326,0.45,0,0,2,606,2
0.121568338094,1.11635649592,0.06634217111,0.126331059056,0.315,0.45,1,1,2,607,2
0.0683556404854,0.0326952110447,1.00117573002,0.166972131732,0.337,0.45,2,2,2,608,2
1.41009255739,0.207773645226,0.0389960929908,0.0972724068056,0.369,0.45,0,0,2,609,2
0.0676663417697,0.0596124917555,0.0683873056552,1.02843018005,0.447,0.45,3,3,2,610,2
0.116186085016,1.0776695628,0.0251305281478,0.190163766839,0.536,0.45,1,1,1,611,2
0.0671809049272,0.113421367478,0.0392340099124,1.1099526325,0.579,0.45,3,3,1,612,2
0.0692092043124,0.0440829948479,1.04425973186,0.10708450386,0.472,0.45,2,2,1,613,2
0.0676147592924,0.0548580096875,0.000125724167799,1.06513171378,0.444,0.45,3,3,2,614,2
0.0709018197985,0.0909536494062,1.1344524422,0.115731499945,0.423,0.45,2,2,2,615,2
1.0298552215,0.414571293749,0.0768690981824,0.201443440613,0.359,0.45,0,0,2,616,2
0.06485033916,1.27791627485,0.0448774307147,0.125918181374,0.336,0.45,1,1,2,617,2
0.0717742814676,0.0573294084549,1.12214422328,0.128703477349,0.308,0.45,2,2,2,618,2
1.15075554771,0.124312282512,0.0882452357286,0.101158361129,0.341,0.45,1,0,-1,619,2
2.24476155233,0.0423814717677,0.0290948045016,0.0813893219202,0.368,0.45,0,0,2,620,2
0.0597147613241,0.0611955440002,1.05161316998,0.171589366162,0.333,0.45,2,2,2,621,2
0.120472474232,0.165209667403,0.0669700414437,1.00926487774,0.321,0.45,3,3,2,622,2
1.07524711838,0.0606573558923,0.053895796959,0.0718194619105,0.389,0.45,0,0,2,623,2
0.0560501261172,0.132485665298,0.03868454473,1.00944560721,0.418,0.45,3,3,2,624,2
0.059205222609,1.01652328036,0.0359401967581,0.209381767721,0.33,0.45,1,1,2,625,2
0.063226937281,0.028507066112,0.0398449494942,1.02462039699,0.452,0.45,3,3,1,626,2
1.04979754245,0.0667993079538,0.0550424748932,0.0858529940879,0.383,0.45,0,0,2,627,2
0.0460790010274,0.102121226667,1.02492843863,0.19035185192,0.378,0.45,2,2,2,628,2
0.0396960609131,1.17544740375,0.0237711049363,0.130640879783,0.32,0.45,1,1,2,629,2
0.0405762423717,0.0245203093775,1.08574574315,0.10844081582,0.399,0.45,2,2,2,630,2
1.82703494336,0.112258673916,0.0471473669119,0.138294775442,0.368,0.45,0,0,2,631,2
0.0763603333665,1.20545103106,0.048074796341,0.122242458124,0.39,0.45,1,1,2,632,2
0.0615228196242,0.145010379883,0.0198662056458,0.124799278903,0.7,0.45,3,-1,0,634,2
0.0635648794606,0.0508934657411,1.07736134154,0.0764734630586,0.437,0.45,2,2,2,634,2
0.0582806449395,0.142475117984,0.0224654467775,0.200349723154,0.7,0.45,3,-1,0,636,2
0.0621770475094,1.01439610051,0.124537508815,0.162948713196,0.386,0.45,1,1,2,636,2
1.24339479691,0.0222700840933,0.0263705978112,0.158133968631,0.376,0.45,0,0,2,637,2
0.0674727915379,0.0211502161615,0.0303374040805,0.170151627797,0.7,0.45,3,-1,0,639,2
0.438220220703,1.20440348852,0.0170891488369,0.119365007914,0.463,0.45,1,1,1,639,2
1.2861015797,0.0271237668009,0.0370737653198,0.0960215241256,0.434,0.45,0,0,2,640,2
0.0408295236976,0.0709157665042,1.13746533735,0.101135756429,0.387,0.45,2,2,2,641,2
0.0485435979117,1.18216453316,0.0157603723106,0.102674276343,0.332,0.45,1,1,2,642,2
0.0528361282285,0.0786579279149,1.0331442524,0.244506409452,0.367,0.45,2,2,2,643,2
1.69055655583,0.0357786572414,0.104326753886,0.130347370881,0.364,0.45,0,0,2,644,2
0.0623725422569,0.0601803148532,0.0651694537282,1.04301522915,0.374,0.45,3,3,2,645,2
0.0601446861649,0.0739646633404,1.14248009089,0.106369545264,0.423,0.45,2,2,2,646,2
0.0601521437261,0.0883418621247,0.02319544133,1.09471283163,0.387,0.45,3,3,2,647,2
1.1252518051,0.0882072642166,0.00142195784854,0.119816467528,0.379,0.45,0,0,2,648,2
0.069676472462,1.13443881256,0.00808018958753,0.161418023272,0.4,0.45,1,1,2,649,2
0.0663578040033,0.0683055946387,0.0038504516609,0.0580109351406,0.7,0.45,3,-1,0,651,2
0.163374025913,1.13695616164,0.0558874660045,0.136939302499,0.429,0.45,1,1,2,651,3
1.22240820789,0.055693492717,0.0544445859619,0.251505483674,0.364,0.45,0,0,2,652,3
0.0966168854164,0.225680238061,1.17599349289,0.186311589313,0.337,0.45,2,2,2,653,3
0.401391030163,0.0910238834325,0.0501879404838,1.14184238509,0.256,0.45,3,3,2,654,3
1.49623125133,0.610038552636,0.0173641153361,0.198345830611,0.315,0.45,0,0,2,655,3
0.105579020803,0.0561381895914,0.0157977172016,1.10437636494,0.352,0.45,3,3,2,656,3
0.118099281985,0.0296522851804,1.08703434249,0.0933035724915,0.363,0.45,2,2,2,657,3
0.120846894166,1.45585727596,0.0203558977228,0.255211255879,0.292,0.45,1,1,2,658,3
0.124535852901,0.0176516569297,0.0469299046334,1.0876571431,0.338,0.45,3,3,2,659,3
0.110468224597,1.40437699853,0.0270967610178,0.0725117780923,0.346,0.45,1,1,2,660,3
0.092162949009,0.0142677512665,1.21946303333,0.167574771952,0.328,0.45,2,2,2,661,3
1.60504764511,-0.00537752018377,0.00781540863074,0.270176403616,0.324,0.45,0,0,2,662,3
0.0607743403587,1.32910019846,0.0656622685841,0.117497644385,0.357,0.45,1,1,2,663,3
1.6458930192,0.0448668031397,0.0830020881163,0.236123851321,0.367,0.45,0,0,2,664,3
0.126571221044,0.0574392279328,1.20268821593,0.258472258915,0.31,0.45,2,2,2,665,3
0.119485432986,0.0716161492502,0.0474588910338,1.24954593678,0.275,0.45,3,3,2,666,3
1.37995450359,0.0790650449024,0.0811397019988,0.257486577699,0.435,0.45,0,0,2,667,3
0.0554529596824,0.0186632184204,0.033246621219,1.16623304919,0.402,0.45,3,3,2,668,3
0.0650838505523,0.0563831209524,1.09793594852,0.14014606753,0.394,0.45,2,2,2,669,3
0.0621254112092,1.41890264599,0.0078150674062,0.318554998315,0.312,0.45,1,1,2,670,3
0.117208333514,0.000531614349722,0.00781261426763,1.16568150144,0.329,0.45,3,3,2,671,3
0.133061728923,1.12076172819,0.0076512677203,0.192009199082,0.327,0.45,1,1,2,672,3
0.109544421711,0.0576761650292,1.25247146805,0.200249137647,0.418,0.45,2,2,2,673,3
1.23425604989,0.0179042608677,0.0156373895905,0.367979324698,0.295,0.45,0,0,2,674,3
0.0615476746483,1.06248934965,0.0253039579337,0.283365624044,0.288,0.45,1,1,2,675,3
0.0642907858302,0.0221554542684,0.023620450449,1.46482700735,0.33,0.45,3,3,2,676,3
0.0663281467846,0.042903514196,1.21502463054,0.0989447785201,0.331,0.45,2,2,2,677,3
1.70158224547,0.0340783672917,0.0136458995509,0.127899759165,0.336,0.45,0,0,2,678,3
0.0157033885796,0.0229359921223,0.172667586261,1.0100666882,0.459,0.45,3,3,1,679,3
2.61677169988,0.023379540296,0.00587560429982,0.0344534082913,0.454,0.45,0,0,1,680,3
0.0474658966416,0.00948275911337,1.4394523136,0.120962554627,0.365,0.45,2,2,2,681,3
0.0469476374173,0.0494983604443,0.0082388095796,1.41865956248,0.332,0.45,3,3,2,682,3
0.0478004377414,1.52743804384,0.00784203304822,0.146869074348,0.315,0.45,1,1,2,683,3
1.82883137824,0.0297707843218,0.0242117578064,0.0962613965306,0.384,0.45,0,0,2,684,3
0.0570099177764,1.07752217251,0.0333338893921,0.142106400806,0.373,0.45,1,1,2,685,3
0.037447715278,0.026964056742,1.28269967897,0.16352303972,0.351,0.45,2,2,2,686,3
0.406981456865,1.22385973232,0.0315525663858,0.0752130120146,0.385,0.45,1,1,2,687,3
1.31891094156,0.104986132317,0.106361063936,0.105417916611,0.426,0.45,0,0,2,688,3
0.0454231223809,0.0639247147849,1.40316139093,0.400409826777,0.456,0.45,2,2,1,689,3
0.0411653223268,0.29726042826,0.0199810022354,1.10293080705,0.395,0.45,3,3,2,690,3
0.0476459218428,0.0849269464935,1.05615457581,0.0807711075495,0.456,0.45,2,2,1,691,3
1.27403081349,0.804792397252,0.010230919023,0.293319912836,0.428,0.45,0,0,2,692,3
0.0781520013105,0.0159616162535,0.162267792189,1.20269604012,0.432,0.45,3,3,2,693,3
1.53548352724,0.0156634249492,0.0161212650243,0.18826013521,0.41,0.45,0,0,2,694,3
0.0237645446622,1.09770451297,-0.000768581100909,0.0886521315725,0.448,0.45,1,1,2,695,3
0.0365397596699,0.0234501152713,0.000576454068706,1.34050435803,0.427,0.45,3,3,2,696,3
3.15944964138,0.0452685483748,0.0267993363232,0.0467539685234,0.382,0.45,1,0,-1,697,3
0.0328656437651,0.197481611813,1.55054459738,0.225467912251,0.401,0.45,2,2,2,698,3
0.0534255274323,1.08596365857,0.00172225417064,0.208116250026,0.366,0.45,1,1,2,699,3
1.22342518962,0.0476596829034,9.19133974104e-05,0.188479869943,0.31,0.45,0,0,2,700,3
0.0321723605257,0.0166291634357,1.1342890645,0.263235391186,0.385,0.45,2,2,2,701,3
0.0354842833597,0.070153126838,-0.00774960647001,1.11317545613,0.361,0.45,3,3,2,702,3
1.31369089183,0.089563540492,-0.00780813265811,0.215617178051,0.374,0.45,0,0,2,703,3
0.0136886959429,0.0598030917597,0.0185743809798,1.34292290652,0.427,0.45,3,3,2,704,3
0.0201410497694,0.0370691961603,1.14052782535,0.0976389502844,0.414,0.45,2,2,2,705,3
0.0261364085121,1.15972045512,-0.00780160208859,0.215333795276,0.334,0.45,0,1,-1,706,3
0.0237570836866,1.31688726957,-0.00744197919168,0.195248030248,0.341,0.45,1,1,2,707,3
0.0323437842055,0.00779171700749,0.30866058432,1.18169953604,0.404,0.45,3,3,2,708,3
0.0409101700719,1.40000758173,0.0973106686694,0.164186823812,0.394,0.45,1,1,2,709,3
0.0399159560905,0.0146102325985,1.21095889096,0.280309501285,0.312,0.45,2,2,2,710,3
0.0525263898317,1.07647305027,0.396868331683,0.0554328143747,0.396,0.45,1,1,2,711,3
0.0983913217585,0.0762019481951,1.08688344444,0.218505167741,0.41,0.45,2,2,2,712,3
0.0759487485174,0.242009834544,0.0122178075271,1.04087087832,0.347,0.45,3,3,2,713,3
1.13956470081,0.241664660157,0.100852894766,0.174859372016,0.359,0.45,0,0,2,714,3
0.0522010912027,0.502431072816,1.04533902449,0.280144938167,0.426,0.45,2,2,2,715,3
1.14696081087,0.0686612313526,-0.0136561636583,0.276730317563,0.376,0.45,0,0,2,716,3
0.0813377190711,0.0293001948141,0.381981169485,1.21319247728,0.447,0.45,3,3,2,717,3
0.0908179317557,1.29807280598,0.0455012249524,0.276574679611,0.449,0.45,1,1,2,718,3
0.12970647944,0.0894963810721,0.0971096497696,1.13251064197,0.376,0.45,3,3,2,719,3
0.101450603612,0.0521875925062,1.12911000319,0.110865741541,0.359,0.45,2,2,2,720,3
0.0443489582201,1.24239815213,0.00855871402148,0.322599758987,0.348,0.45,1,1,2,721,3
1.14377335601,0.0105028558408,0.0306883173408,0.263260420859,0.374,0.45,0,0,2,722,3
0.104399638126,1.27279331377,0.199039524025,0.264499615679,0.403,0.45,1,1,2,723,3
0.0424665335405,0.0333930315062,1.04668113716,0.266773611691,0.47,0.45,2,2,1,724,3
0.0634842566933,0.0481016762391,0.232056303081,1.24478664039,0.445,0.45,3,3,2,725,3
1.40672557407,0.0910404495079,0.0383531428585,0.201624173891,0.442,0.45,0,0,2,726,3
0.0478908765774,0.0618637564217,0.068291507298,1.0754355397,0.428,0.45,3,3,2,727,3
0.0420709878188,0.052533594539,1.07307163551,0.252140451128,0.48,0.45,2,2,1,728,3
1.13261872405,0.613444036208,0.024406455746,0.0763987582565,0.448,0.45,0,0,2,729,3
0.0681396963267,1.29462131536,0.0234562050824,0.216062148386,0.427,0.45,1,1,2,730,3
0.0707672567147,0.043328565302,0.118072226697,1.21138409217,0.354,0.45,3,3,2,731,3
0.0670762935809,1.15267939915,0.0139723629878,0.081332726688,0.379,0.45,1,1,2,732,3
1.32403438514,-0.00154000939386,0.00635411347622,0.073143674234,0.403,0.45,0,0,2,733,3
0.0455956241248,0.0570683265145,1.16284500224,0.13550288729,0.398,0.45,2,2,2,734,3
0.0454283917185,1.1902347419,0.00783254884736,0.147069128963,0.421,0.45,1,1,2,735,3
0.0491588520115,0.0156427168288,0.153756555106,1.06204720822,0.42,0.45,3,3,2,736,3
1.08872749591,0.114017982754,0.136274220405,0.209258604606,0.386,0.45,0,0,2,737,3
0.062842686011,0.0497942945277,1.04864400789,0.272406438031,0.348,0.45,2,2,2,738,3
1.23142801279,0.670812365219,0.0118199792754,0.0914004129697,0.379,0.45,0,0,2,739,3
0.0255592534004,0.0434232765894,0.0192598481524,1.07001091846,0.315,0.45,3,3,2,740,3
0.0728425114637,0.162573939852,1.04398783496,0.300522147063,0.43,0.45,2,2,2,741,3
0.0263637661222,0.06193815763,0.0156332112684,1.24039986046,0.442,0.45,3,3,2,742,3
0.0516067023258,1.09068780324,0.00217643134452,0.223588244913,0.399,0.45,1,1,2,743,3
1.13349313471,0.0219336695482,0.0278556578263,0.322686831323,0.417,0.45,0,0,2,744,3
0.0240013400373,1.21336198707,0.0204810693621,0.224158302954,0.416,0.45,1,1,2,745,3
0.0303938360169,0.0972543724771,1.06968465758,0.122081623141,0.482,0.45,2,2,1,746,3
1.02011366945,-0.00217913180626,0.0100789683822,0.0383593755153,0.532,0.45,1,0,-1,747,3
0.0218766456219,0.0580409154476,1.04850490034,0.0976257955956,0.458,0.45,2,2,1,748,3
0.0209438349221,0.0400303301766,0.0536861112544,1.12668340059,0.369,0.45,3,3,2,749,3
1.30144556918,0.0628912053138,0.0111503428542,0.12463968895,0.325,0.45,0,0,2,750,3
0.0107892273579,0.0754392130593,1.11253521343,0.196936647002,0.331,0.45,2,2,2,751,3
1.18678966721,0.480883884368,1.53926067127e-05,0.214389947928,0.409,0.45,0,0,2,752,3
0.0583801534188,0.0303665689175,0.056996054538,1.25219947776,0.444,0.45,3,3,2,753,3
0.0717507916519,0.0407806599648,1.13499834755,0.0824846394405,0.565,0.45,2,2,1,754,3
0.075838011089,1.0144018472,0.0109953753606,0.257298341978,0.459,0.45,1,1,1,755,3
0.0738556592392,0.0285970545425,0.0218595528004,1.11177539604,0.415,0.45,3,3,2,756,3
0.29970790008,1.14058057949,0.026899553606,0.124704436894,0.43,0.45,1,1,2,757,3
1.18285942392,0.0496234996689,0.0164902040346,0.112722878628,0.455,0.45,0,0,1,758,3
0.0662888962324,1.03573287024,0.00925843440004,0.159621337271,0.491,0.45,1,1,1,759,3
1.26299068335,0.0261512699465,-0.00644115936249,-0.00289585509177,0.541,0.45,0,0,1,760,3
0.0183406614233,0.0550822018779,1.19685209122,0.210212945713,0.47,0.45,2,2,1,761,3
0.0257158517001,0.0717305080371,0.00970860248047,1.12714422408,0.423,0.45,3,3,2,762,3
1.16079232657,0.0824854669644,-0.00204976194116,0.0958040365302,0.436,0.45,0,0,2,763,3
0.0233949227748,0.0606037334306,0.00223120128446,1.08465292946,0.399,0.45,3,3,2,764,3
0.0329146140094,0.0866936239688,1.14406875415,0.849294192912,0.489,0.45,2,2,1,765,3
0.0388818701793,1.13052617627,0.0519365471794,0.134707031402,0.398,0.45,1,1,2,766,3
0.038729507075,0.0389343417373,0.0319229223382,1.06363591373,0.382,0.45,3,3,2,767,3
0.0500809712022,1.0554058343,0.0666659486046,0.134369678005,0.382,0.45,1,1,2,768,3
0.0476123455516,0.0215060896205,1.08352950032,0.112877669129,0.369,0.45,2,2,2,769,3
1.08046813713,0.0310945151538,0.0219303767998,0.185021748313,0.398,0.45,0,0,2,770,3
0.0468466268022,1.0436838463,0.0386772710514,0.347333998828,0.371,0.45,1,1,2,771,3
0.0487691531409,0.0235559164222,0.217734536691,1.28968673733,0.349,0.45,3,3,2,772,3
1.34429424636,0.0828843484046,0.0442306519068,0.0930847292592,0.368,0.45,0,0,2,773,3
0.0332102153837,0.048632475263,1.09224205635,0.159096943724,0.336,0.45,2,2,2,774,3
0.0372618481086,0.0385930331371,0.0317030892912,1.01934966654,0.407,0.45,3,3,2,775,3
0.0426544443852,0.110610642639,1.02607524709,0.0675575411489,0.479,0.45,2,2,1,776,3
1.03489707256,0.0951238714496,-0.00997016929078,0.116787489573,0.447,0.45,0,0,2,777,3
0.0448551624115,0.135670115963,-0.00580357091251,1.04486072238,0.407,0.45,3,3,2,778,3
0.0493812279546,1.07088108715,-0.00754475028316,0.122272566921,0.346,0.45,1,1,2,779,3
1.02236719834,0.0565148377287,0.0430037740966,0.0595367509051,0.381,0.45,0,0,2,780,3
0.0614074587792,1.28846468599,0.00616085790022,0.147157228711,0.41,0.45,1,1,2,781,3
0.0560635419411,0.0156380408394,1.10413199956,0.13762639992,0.37,0.45,2,2,2,782,3
0.0580579635794,1.01311993222,0.0462991659646,0.0319627171348,0.444,0.45,1,1,2,783,3
0.0616074965368,0.0516577475923,1.05322089518,0.0517207194295,0.397,0.45,2,2,2,784,3
0.0564236901927,0.100209605968,0.0555083752193,1.10869216603,0.348,0.45,3,3,2,785,3
1.15113254806,0.108702676708,0.0316063852449,0.194992960165,0.374,0.45,0,0,2,786,3
0.0707917517284,0.0476886294519,0.678486618827,1.05597259254,0.412,0.45,3,3,2,787,3
0.0765803847986,0.0528047746188,1.27539654912,0.0922582703029,0.375,0.45,2,2,2,788,3
1.27669434597,0.0945978994644,0.0372465424949,0.130400378755,0.404,0.45,0,0,2,789,3
0.108334676866,1.01833345067,0.122490982502,0.182393580205,0.375,0.45,1,1,2,790,3
0.026738350871,0.0457302750519,0.842925949733,1.11540216729,0.385,0.45,3,3,2,791,3
0.0330963785631,1.1781289218,0.0476427923389,0.0154356202061,0.417,0.45,1,1,2,792,3
1.09791680664,0.0578325390079,0.0349603973899,0.10318526507,0.391,0.45,0,0,2,793,3
0.0343871483241,0.0686503644443,1.12122053697,0.237798080637,0.36,0.45,2,2,2,794,3
0.0433199452134,1.07353280735,0.0183729858173,0.0950055995553,0.442,0.45,1,1,2,795,3
0.0443276948614,0.0339955331945,0.0344379166089,1.10657665351,0.429,0.45,3,3,2,796,3
1.03852906559,0.06387622296,0.00375731664352,0.068809113019,0.474,0.45,0,0,1,797,3
0.0520050580993,0.0561275968696,1.01814579173,0.219718322345,0.436,0.45,2,2,2,798,3
0.0454589369386,0.0469827863038,0.0113994216315,1.06981219523,0.42,0.45,3,3,2,799,3
0.0484772778574,0.310245661332,1.04815290784,0.0519473696801,0.471,0.45,2,2,1,800,3
1.12005559138,0.080440175323,0.00785945600967,0.141350501469,0.458,0.45,0,0,1,801,3
0.08898630437,1.19378880111,0.00895398473404,0.191763713647,0.442,0.45,1,1,2,802,3
1.07253091096,0.00548074351581,0.00794207907393,0.128632083005,0.438,0.45,0,0,2,803,3
0.0724607467402,0.0561416669886,0.0506860487814,1.17878127151,0.398,0.45,3,3,2,804,3
0.331184494371,1.17301739066,0.0741811055143,0.241024702241,0.445,0.45,1,1,2,805,3
0.0343676887187,0.0437082859463,1.01368817194,0.0537576325346,0.431,0.45,2,2,2,806,3
0.241997427676,1.02540231207,0.0626177976399,0.041092118253,0.423,0.45,1,1,2,807,3
0.0378869348938,0.046660116863,0.058930945983,1.18265237472,0.362,0.45,3,3,2,808,3
0.0832882910427,0.0445531884164,1.01298440814,0.0568269477657,0.479,0.45,2,2,1,809,3
1.27852355927,0.0779193932342,0.014365678982,0.14310162438,0.415,0.45,0,0,2,810,3
0.0397632893691,1.06447681787,0.00109066353337,0.253942806134,0.306,0.45,2,1,-1,811,3
0.0479979933888,0.097969290046,2.20530379199e-05,1.18474978039,0.391,0.45,3,3,2,812,3
1.07869934282,0.112549354612,0.0169668309259,0.189806704756,0.414,0.45,0,0,2,813,3
0.0355439190101,0.0501319276577,0.128949519339,1.11889751898,0.43,0.45,3,3,2,814,3
0.0421299797231,1.10570005562,0.104138451857,0.0304208679401,0.421,0.45,1,1,2,815,3
0.0474199923958,0.0215964857177,1.08021642339,0.116936216976,0.245,0.45,0,2,-1,816,3
0.038832731784,1.0990672917,-0.0029364352815,0.00683487801685,0.345,0.45,1,1,2,817,3
0.0309190934826,0.0156555056718,1.11810124836,0.0223872858821,0.27,0.45,2,2,2,818,3
0.0314772524569,0.151889376191,0.162567930403,1.08017925281,0.341,0.45,1,3,-1,819,3
0.0334048319872,0.0312934081521,0.461386972641,1.08003993687,0.422,0.45,3,3,2,820,3
1.29198088918,0.0473178600443,0.0292575301205,0.0870529249651,0.404,0.45,0,0,2,821,3
0.0364714032983,0.0700466267319,1.13261275859,0.200271475723,0.356,0.45,2,2,2,822,3
1.05495846675,0.149241245309,0.0276811752301,0.273803869223,0.382,0.45,0,0,2,823,3
0.0557846502318,0.0493120497296,0.0728033887264,1.11539293252,0.413,0.45,3,3,2,824,3
0.0249929348731,0.0550476691276,1.0621791212,0.0542334082972,0.359,0.45,2,2,2,825,3
0.0270988376921,1.26318226228,0.00810926712746,0.169107773803,0.309,0.45,1,1,2,826,3
1.15847441142,0.115525636231,0.0313988343563,0.315765572731,0.328,0.45,0,0,2,827,3
0.0598047721327,1.08169590963,0.0369734330599,0.29276003345,0.328,0.45,1,1,2,828,3
0.0400369644918,0.033705902784,1.16248956532,0.193073029935,0.355,0.45,2,2,2,829,3
0.0404009184517,0.0468516319411,0.011569415034,1.35630607214,0.275,0.45,3,3,2,830,3
1.04737028985,0.204314128867,0.0536345450033,0.223256532556,0.314,0.45,1,0,-1,831,3
0.0317999913297,0.0335646507385,0.844508191111,1.14316134413,0.38,0.45,3,3,2,832,3
1.15695779476,0.0310858996046,0.173332096418,0.0862061494993,0.409,0.45,0,0,2,833,3
0.0465814572961,1.04666089035,0.0933262946085,0.254951749923,0.327,0.45,2,1,-1,834,3
0.0312336180043,0.0285085374768,1.2066630353,0.0864596196253,0.366,0.45,3,2,-1,835,3
0.0298388556823,0.0720112252877,1.04568270288,0.0923791451628,0.36,0.45,2,2,2,836,3
1.21794336508,0.108890433778,0.0127851223273,0.188908216281,0.394,0.45,0,0,2,837,3
0.0511661452878,0.0745049392264,0.00987029730554,1.16752474893,0.38,0.45,3,3,2,838,3
0.0429661891682,1.01065764419,0.00504399555867,0.132484961707,0.37,0.45,1,1,2,839,3
2.10181376668,0.0198428387653,0.0133075801455,0.120901345017,0.388,0.45,0,0,2,840,3
0.0293806687528,1.22715034279,0.0564101745975,0.220299960445,0.435,0.45,1,1,2,841,3
0.0343178633453,0.0718780052381,1.19933044061,0.107967013358,0.384,0.45,2,2,2,842,3
0.0320714548493,1.2259072412,0.0139865153073,0.00632309345415,0.38,0.45,1,1,2,843,3
1.27758899168,0.0311828891893,0.110889875103,0.0731117191578,0.406,0.45,0,0,2,844,3
0.0217627584174,0.176900738354,0.0212739924367,1.07766388736,0.415,0.45,3,3,2,845,3
0.0274843707921,0.0756694479685,1.07562723678,0.122401576142,0.396,0.45,2,2,2,846,3
0.0344124612738,0.0778016819077,0.00575602391602,1.0185729688,0.405,0.45,3,3,2,847,3
1.28455248443,0.259281872057,-0.026034360514,0.150309150811,0.476,0.45,0,0,1,848,3
0.0137174593987,0.0660763949279,1.17907883272,0.162837890154,0.417,0.45,2,2,2,849,3
1.05963985368,0.121757599342,4.36757750844e-06,0.173834706486,0.429,0.45,0,0,2,850,3
1.06668145786,0.0109821772823,-0.00266793155855,0.0811932139669,0.416,0.45,1,0,-1,851,3
0.00835049787818,0.0150230494789,1.41572397126,0.27327744916,0.441,0.45,2,2,2,852,3
0.0255115691653,1.12685338427,-0.0110039848857,0.0860160635714,0.416,0.45,1,1,2,853,3
0.00925603053546,0.0710589878723,0.0345091640202,1.11346988613,0.386,0.45,3,3,2,854,3
0.0447088067103,1.03116275409,0.102639629467,0.110083542448,0.338,0.45,1,1,2,855,3
0.039230538991,0.112735493381,0.00871415033689,1.00182005072,0.35,0.45,3,3,2,856,3
1.0490447852,0.137620951,0.0713184991028,0.141959798156,0.362,0.45,0,0,2,857,3
0.00345083757967,0.07123012606,1.02804134224,0.202668507727,0.329,0.45,2,2,2,858,3
1.20563427005,0.0337819165009,0.0144042700565,0.0971215225091,0.389,0.45,0,0,2,859,3
0.070188069786,0.123941133171,0.0727106548983,1.0553342151,0.303,0.45,3,3,2,860,3
0.0742972471308,0.0744966917653,1.13449520576,0.167634550998,0.402,0.45,2,2,2,861,3
0.0695823618364,1.0020465609,0.00798722319386,0.160198934831,0.337,0.45,1,1,2,862,3
0.0734269677196,0.0506747450374,1.05180623519,0.26238464137,0.329,0.45,2,2,2,863,3
0.0984946073467,0.029961505106,0.0448426419999,1.21378314732,0.416,0.45,3,3,2,864,3
0.0725075210391,1.2300690549,-0.0128661346581,0.0903468799551,0.377,0.45,1,1,2,865,3
1.03341269894,0.06271819551,0.150736858639,0.259674305528,0.396,0.45,0,0,2,866,3
0.388625450383,1.16962059246,0.363624140399,0.139606659426,0.404,0.45,1,1,2,867,3
1.46867555171,0.121220370934,0.0583556450602,0.167311788268,0.454,0.45,0,0,1,868,4
0.0297436654564,0.103084731673,1.30588305298,0.180272819726,0.429,0.45,2,2,2,869,4
0.0331593507843,0.067244898184,0.0101741569397,1.26514309759,0.309,0.45,3,3,2,870,4
0.0444425052122,1.17146473401,0.0208224668943,0.0444274036279,0.28,0.45,1,1,2,871,4
0.0408730194194,0.0223266610853,1.05112504426,0.0244470903695,0.339,0.45,2,2,2,872,4
1.00992953438,0.189123694348,0.142686087913,0.188397591982,0.438,0.45,1,0,-1,873,4
0.113712972595,0.0851101338681,0.714403397827,1.37747479852,0.353,0.45,3,3,2,874,4
0.0433590601922,0.0786796173942,1.01013616665,0.112163633646,0.406,0.45,2,2,2,875,4
1.18511330828,0.082042616405,0.0821700578675,0.25434103005,0.383,0.45,0,0,2,876,4
0.0710750898526,0.190050617159,1.00026929393,0.250329725695,0.353,0.45,3,2,-1,877,4
1.1786018663,0.111981425903,0.0193544223622,0.109341259629,0.398,0.45,0,0,2,878,4
0.062764185727,1.26659363578,0.011215473131,0.17011343492,0.321,0.45,1,1,2,879,4
1.14349886755,0.0400572949739,0.0584459467311,0.156325423579,0.382,0.45,0,0,2,880,4
0.136626436149,0.267671785426,0.103219943696,1.05310621134,0.368,0.45,3,3,2,881,4
0.0940071293546,1.09001450687,0.0201816375216,0.0771394851365,0.324,0.45,1,1,2,882,4
0.109869250027,0.0893223277659,1.24589912121,0.20200095186,0.303,0.45,2,2,2,883,4
0.0917307220128,1.1506256389,0.0329484549797,0.249488973014,0.338,0.45,1,1,2,884,4
0.101597447577,0.0560850890285,0.330460530744,1.05004692955,0.336,0.45,3,3,2,885,4
0.0991109755055,0.032306245482,1.11074366399,0.101640133489,0.43,0.45,2,2,2,886,4
0.0970494521243,0.0408816799965,0.0313079365694,1.49205125097,0.414,0.45,3,3,2,887,4
1.03542109577,0.0203220947699,0.00690586945022,0.0908939702277,0.379,0.45,0,0,2,888,4
0.0710721068516,1.17510996938,0.0305235360471,0.133228087199,0.268,0.45,1,1,2,889,4
1.97511593559,0.0193294606988,0.0240456356516,0.108935855524,0.351,0.45,0,0,2,890,4
0.105088580356,0.231802250703,1.14483999027,0.2595412891,0.356,0.45,2,2,2,891,4
0.0988650404035,1.12866381851,0.00792239194336,0.146749522542,0.284,0.45,0,1,-1,892,4
0.0872359508107,0.0606156172293,1.01429314833,0.0901496637774,0.373,0.45,2,2,2,893,4
0.0894185234265,1.19959933604,0.024079354205,0.0733027911809,0.329,0.45,1,1,2,894,4
0.103965699397,0.0705583635173,0.130342807993,1.17541968377,0.336,0.45,3,3,2,895,4
0.0911168065946,1.04946588018,0.0143409251791,0.0972774984419,0.326,0.45,1,1,2,896,4
0.0899403821389,0.0439578603336,1.01317293919,0.184223474015,0.262,0.45,2,2,2,897,4
0.0816648228842,0.0329719753271,0.0486881934157,1.11189728017,0.364,0.45,3,3,2,898,4
1.15847116759,0.0394680002251,0.0282606344675,0.198985111887,0.425,0.45,0,0,2,899,4
0.0782882163059,1.004576662,0.024840456254,0.176093580715,0.449,0.45,1,1,2,900,4
1.23478176844,0.0159253606924,0.0108476560238,0.249116841472,0.451,0.45,0,0,1,901,4
0.0640245546487,0.0685883814682,0.0712777000835,1.233633261,0.401,0.45,3,3,2,902,4
0.0629414321493,0.0350574507848,1.07050360545,0.222513126492,0.402,0.45,2,2,2,903,4
1.08396873497,0.0628173766547,0.000119213886931,0.106531027507,0.449,0.45,0,0,2,904,4
0.0565250021198,0.0542662061316,0.0169006203678,1.04963516886,0.394,0.45,3,3,2,905,4
0.0682407054694,0.0694553148225,1.00817876837,0.120130204777,0.480000000001,0.45,2,2,1,906,4
0.0635861523373,1.04190699374,-0.0155786756273,0.156015346476,0.454000000001,0.45,1,1,1,907,4
0.0616718156988,0.0318973868531,-0.0107675371495,1.06391087836,0.417000000001,0.45,3,3,2,908,4
1.00402519191,0.0333300837304,-0.0150730443188,0.193295985472,0.396000000001,0.45,1,0,-1,909,4
0.099043237545,0.0573919444083,1.1975184768,0.238110659608,0.451000000001,0.45,2,2,1,910,4
0.094730484407,0.0884169038579,0.0078417487727,1.2248307603,0.395000000001,0.45,3,3,2,911,4
1.18151135118,0.0289201591686,0.00709358371176,0.142559433303,0.451000000001,0.45,0,0,1,912,4
0.0435138424286,1.17797222231,0.0142026495751,0.237911092176,0.395000000001,0.45,1,1,2,913,4
1.04307603843,0.0114359387958,-0.00255536388706,0.160362791584,0.493000000001,0.45,0,0,1,914,4
0.106271670108,0.108999389413,1.00737188098,0.295724231425,0.376000000001,0.45,2,2,2,915,4
1.105152195,0.287917846599,-0.0113183852324,0.0350194417401,0.428000000001,0.45,0,0,2,916,4
0.102686038075,0.119660726964,0.00682345108578,1.00058809216,0.367000000001,0.45,2,3,-1,917,4
0.108436773319,0.067737764789,1.01754813519,0.0561412235793,0.394000000001,0.45,3,2,-1,918,4
0.0997875775442,1.09741780887,0.0268035639921,0.0941672704225,0.384000000001,0.45,1,1,2,919,4
0.100643825551,0.055272919453,1.07227004821,0.119463453564,0.391000000001,0.45,2,2,2,920,4
0.171211115496,1.02042953619,0.0577232189923,0.167339990234,0.403000000001,0.45,1,1,2,921,4
0.0561976362584,0.0252682008076,0.249728749589,1.03723606754,0.354000000001,0.45,3,3,2,922,4
0.0533314222394,0.0391269646476,1.02273979585,0.061782226641,0.428000000001,0.45,2,2,2,923,4
0.0578583144843,1.01249305595,0.0197198754797,0.149090333556,0.316000000001,0.45,0,1,-1,924,4
0.0802399805948,0.0309375059648,1.16293852239,0.261921907715,0.367000000001,0.45,3,2,-1,925,4
1.03429790765,0.0237553263598,0.00581477381951,0.121247956815,0.436000000001,0.45,0,0,2,926,4
0.105178521094,1.1876177789,0.0208783488289,0.183472326696,0.434000000001,0.45,1,1,2,927,4
1.06087714599,0.053367949543,0.0330251669051,0.2832544731,0.492000000001,0.45,0,0,1,928,4
0.14273342911,0.0936304607298,1.07477540221,0.342107667933,0.424000000001,0.45,2,2,2,929,4
0.131398170863,0.105307157125,0.0156859836835,1.1664366852,0.401000000001,0.45,3,3,2,930,4
0.131806625286,1.1650572372,0.0131684033645,0.289058713782,0.382000000001,0.45,1,1,2,931,4
0.114491707767,0.0281782267837,1.10698203939,0.343755826223,0.319000000001,0.45,2,2,2,932,4
0.10447837513,1.09221243947,0.0379648080842,0.147431550231,0.418000000001,0.45,1,1,2,933,4
0.0782666228124,0.0356151526533,0.0888927298895,1.02196726334,0.427000000001,0.45,3,3,2,934,4
1.165894035,0.0479572491606,0.0263517886883,0.293908493271,0.470000000001,0.45,0,0,1,935,4
0.0561672622237,0.0718801719862,0.0366159662851,1.37793570563,0.480000000001,0.45,3,3,1,936,4
0.0691288268815,0.0696082901717,1.21105198622,0.257012927982,0.433000000001,0.45,2,2,2,937,4
1.09084915514,0.0499151219813,0.02496336145,0.323578366901,0.452000000001,0.45,0,0,1,938,4
0.0801623407365,1.14703782545,0.0106592767641,0.196873300989,0.496000000001,0.45,1,1,1,939,4
1.01316194054,0.0134884443462,0.0331459183089,0.276606063195,0.473000000001,0.45,0,0,1,940,4
0.0931160282635,0.0651191696209,1.26634113173,0.420941036305,0.377000000001,0.45,2,2,2,941,4
0.0862524662061,1.0330036435,0.00784421113538,0.818025223762,0.321000000001,0.45,1,1,2,942,4
0.0892129708644,0.135940950945,0.290668738484,1.67572033848,0.494000000001,0.45,3,3,1,943,4
0.0806199940724,0.0720444907554,1.03203855427,0.176015778069,0.491000000001,0.45,2,2,1,944,4
0.0749247267301,0.0812049177127,0.00784976598286,1.14726449645,0.499000000001,0.45,3,3,1,945,4
0.0753924181415,1.18370441597,0.0173410706,0.0568349842123,0.432000000001,0.45,1,1,2,946,4
0.0702474094492,0.0599327242912,1.16787190589,0.158068029298,0.395000000001,0.45,2,2,2,947,4
1.16117522208,0.0241037852653,0.0271973484263,0.208679818748,0.377000000001,0.45,0,0,2,948,4
0.0941484866467,0.0637023158289,0.0248031498178,1.10214650238,0.270000000001,0.45,3,3,2,949,4
1.01540385184,0.0310727059737,0.0513087243272,0.0993799000309,0.505000000001,0.45,0,0,1,950,4
0.0889948872,1.03323353123,0.0262427334059,0.130000003621,0.429000000001,0.45,1,1,2,951,4
1.15192254906,0.089209527787,0.0805579531087,0.242445345771,0.436000000001,0.45,0,0,2,952,4
0.12511445441,0.2381782969,1.10026147441,0.344713889339,0.426000000001,0.45,2,2,2,953,4
0.108939737222,0.0441520331959,0.00784281822321,1.17918457726,0.378000000001,0.45,3,3,2,954,4
0.098597234834,1.09484544112,0.00781409347282,0.26200947873,0.420000000001,0.45,1,1,2,955,4
0.091435806134,0.0292237742883,1.24500671865,0.279292536,0.413000000001,0.45,2,2,2,956,4
0.08979815656,1.07081975217,0.0156665076936,0.308552631842,0.435000000001,0.45,1,1,2,957,4
0.0740624778711,0.0377940693573,0.015629099437,1.00329694958,0.392000000001,0.45,3,3,2,958,4
1.09559943938,0.292876318835,0.0107825691335,0.35073175023,0.440000000001,0.45,0,0,2,959,4
0.0891875129726,1.28025527962,0.0137980596663,0.0928503519246,0.434000000001,0.45,1,1,2,960,4
1.26702302541,0.0111321206265,0.00870381098018,0.21157429446,0.425000000001,0.45,0,0,2,961,4
0.0216571425261,0.0821409160848,0.0179801719654,1.13576826652,0.428000000001,0.45,3,3,2,962,4
0.041974090517,0.0563164294986,1.05541256458,0.164299519554,0.485000000001,0.45,2,2,1,963,4
0.0413462955773,1.16998964589,-0.00780144808235,0.228927320622,0.376000000001,0.45,0,1,-1,964,4
0.0730298819746,0.0470200863814,0.839590751846,1.25791557789,0.426000000001,0.45,3,3,2,965,4
0.065103362868,1.19899759574,0.0613630699044,0.146345335369,0.426000000001,0.45,1,1,2,966,4
0.0243711023737,0.0869307984023,1.10424135833,0.336633293322,0.389000000001,0.45,2,2,2,967,4
0.0592258475844,1.04665502238,0.0390837583616,0.445831554119,0.457000000001,0.45,1,1,1,968,4
0.0616535082939,0.0408902267039,0.0173491271718,1.00745922179,0.384000000001,0.45,3,3,2,969,4
0.0274608218813,0.0458524293641,1.14073770448,0.113797688728,0.425000000001,0.45,2,2,2,970,4
0.0186307400653,0.0659203599157,1.24001823045e-05,1.31873397584,0.444000000001,0.45,3,3,2,971,4
1.1291055005,0.0712095198566,9.62250022662e-07,0.326765382252,0.459000000001,0.45,0,0,1,972,4
0.0195910419384,0.0407858967936,1.23128084277,0.348141157196,0.406000000001,0.45,2,2,2,973,4
1.14259890735,0.101273948412,0.00781996954162,0.420923609488,0.469000000001,0.45,0,0,1,974,4
0.0589161966179,1.05869417782,0.0374477753264,0.421029315823,0.364000000001,0.45,1,1,2,975,4
1.05434694935,0.00782399027853,0.00973092209127,0.30566274637,0.393000000001,0.45,0,0,2,976,4
0.0503826016712,0.0518617263927,1.0623812449,0.422830781309,0.334000000001,0.45,2,2,2,977,4
0.284624128385,1.0725756811,0.0252624156312,0.368754569758,0.404000000001,0.45,1,1,2,978,4
0.0122113147539,0.0357948346727,0.0234653478814,1.01098677332,0.398000000001,0.45,3,3,2,979,4
0.0216242877104,1.00656516093,0.0289517428799,0.315113446558,0.454000000001,0.45,1,1,1,980,4
0.0234378391073,0.0116680554077,1.13761108491,0.289190767123,0.361000000001,0.45,2,2,2,981,4
0.10584237998,0.0332258880419,0.0424667901605,1.08102996455,0.417000000001,0.45,3,3,2,982,4
0.064922268655,0.0483223165491,1.21403365839,0.527110647437,0.431000000001,0.45,2,2,2,983,4
1.44488945831,0.0100200115681,0.0321563685791,0.403856779804,0.429000000001,0.45,0,0,2,984,4
0.0102271234444,1.05854002951,0.0727604785058,0.450885466967,0.360000000001,0.45,1,1,2,985,4
1.45699153345,0.0380779095248,0.0323029256238,0.568873380026,0.549000000001,0.45,0,0,1,986,4
1.00172613544,0.0945063073062,0.107892396787,0.497936600844,0.143000000001,0.45,3,0,-1,987,4
1.00158642008,0.176872668069,0.0570995851052,0.196386613161,0.596000000001,0.45,0,0,1,988,4
0.573117409457,0.285525032025,0.153713669691,0.133506106457,0.7,0.45,3,-1,0,990,4
0.597654155445,0.248594427438,0.176121209939,1.30195107883,0.103000000001,0.45,1,3,-1,990,4
1.02204261714,0.693461243769,0.357956469267,1.31694962869,0.260000000001,0.45,2,3,-1,991,4
1.05529196993,0.207587426011,0.115803163238,0.446329321409,0.230000000001,0.45,3,0,-1,992,4
0.102900528826,0.0877484081623,1.01141922234,0.230185972846,0.344000000001,0.45,2,2,2,993,4
0.391980783939,1.0883648196,0.0186505382473,0.509349534696,0.302000000001,0.45,1,1,2,994,4
0.710199041496,1.07510308827,0.152257290542,0.422521786891,0.349000000001,0.45,0,1,-1,995,4
0.0977405069737,1.27371876798,0.0477901799572,0.374121080819,0.353000000001,0.45,1,1,2,996,4
0.436729852732,0.371700384396,0.31939663078,1.12519405215,0.345000000001,0.45,3,3,2,997,4
0.157927221194,0.173656200996,1.17506404969,0.446546848573,0.330000000001,0.45,0,2,-1,998,4
0.0687958025544,1.16803279769,0.046175108634,0.30806947018,0.309000000001,0.45,2,1,-1,999,4
1.00430003072,0.419700077753,0.0857036946994,0.417229610632,0.344000000001,0.45,0,0,2,1000,4
0.342758944823,1.18069896231,0.11656629415,0.344893051127,0.293000000001,0.45,1,1,2,1001,4
0.164694268116,0.122577500766,1.2493701401,0.468225989587,0.281000000001,0.45,2,2,2,1002,4
0.37313179638,0.232270731674,0.193002114629,1.10728543141,0.273000000001,0.45,3,3,2,1003,4
0.177843875164,1.59938106582,0.275023685986,0.337870193631,0.393000000001,0.45,1,1,2,1004,4
0.124113398728,0.0313643893491,1.15332647928,0.47740267104,0.332000000001,0.45,3,2,-1,1005,4
0.229983774897,1.0429337493,0.015735813142,0.26655458073,0.337000000001,0.45,2,1,-1,1006,4
0.652412407838,0.47657455604,0.586263085017,0.436505365956,0.7,0.45,1,-1,0,1008,4
1.15083034773,0.364463566325,0.946269766302,0.715241310906,0.0610000000006,0.45,0,0,2,1008,4
0.0804977799343,0.0385529737574,0.528623318722,1.09892904622,0.443000000001,0.45,3,3,2,1009,4
1.42462427255,0.104830389828,0.0550163524954,0.310458750234,0.345000000001,0.45,0,0,2,1010,4
0.165124793882,0.0319742928904,1.30718009164,0.462703649135,0.329000000001,0.45,2,2,2,1011,4
1.59720507721,0.388022545103,0.0111314189018,0.276310711532,0.396000000001,0.45,0,0,2,1012,4
0.0946871683109,0.0627294873538,0.0741339474286,1.07677788835,0.412000000001,0.45,3,3,2,1013,4
0.744745377596,1.1716628486,0.122678814658,0.292681764814,0.427000000001,0.45,1,1,2,1014,4
0.14672026335,0.0474029845555,1.20914988941,0.446919791563,0.360000000001,0.45,2,2,2,1015,4
0.623656052956,1.10949493424,0.0967575219735,0.411348068535,0.431000000001,0.45,1,1,2,1016,4
0.168856383249,0.114503474897,0.135810732986,1.04823464984,0.382000000001,0.45,3,3,2,1017,4
0.0462512346429,0.0692808273158,1.10526921165,0.181103472542,0.404000000001,0.45,2,2,2,1018,4
0.135881058285,0.0450712555283,0.116888772363,1.07498303305,0.504000000001,0.45,3,3,1,1019,4
1.03528444193,0.241793643376,0.0968236395524,0.298756166529,0.315000000001,0.45,0,0,2,1020,4
0.0466001625532,0.0673487362928,1.06211680444,0.285346126398,0.292000000001,0.45,2,2,2,1021,4
0.34818868239,1.33999565253,0.206311820679,0.32181807266,0.324000000001,0.45,0,1,-1,1022,4
0.154932112783,1.15810096928,0.0764766547097,0.307784977562,0.315000000001,0.45,1,1,2,1023,4
1.21386731203,0.105157089335,0.155040283223,0.367436264945,0.373000000001,0.45,0,0,2,1024,4
0.226629412622,0.137753525205,1.01763390448,0.402208040898,0.317000000001,0.45,2,2,2,1025,4
0.231060427296,1.03264571391,0.0804711439896,0.195081690508,0.388000000001,0.45,1,1,2,1026,4
0.196019700828,0.284665288453,0.0765873074457,1.13808497994,0.329000000001,0.45,3,3,2,1027,4
0.153305779901,1.03947742457,0.0405778550215,0.253192725027,0.333000000001,0.45,1,1,2,1028,4
0.0385253827481,0.0837183644774,1.17171419045,0.378680104547,0.337000000001,0.45,2,2,2,1029,4
0.0882219135002,0.0770590615731,0.0103562881886,1.00729491543,0.302000000001,0.45,3,3,2,1030,4
1.02066365823,0.0343447800062,0.0314800202289,0.356435142178,0.301000000001,0.45,0,0,2,1031,4
0.0748379603896,0.0327341564954,0.0418536077476,1.13337095774,0.422000000001,0.45,3,3,2,1032,4
0.0460542775744,0.0313966285016,1.05797102007,0.259419884018,0.465000000001,0.45,2,2,1,1033,4
1.34364719463,0.140568822033,0.031342646774,0.310143019717,0.404000000001,0.45,0,0,2,1034,4
0.3625681563,1.4000271846,0.0785727189803,0.247065911386,0.457000000001,0.45,1,1,1,1035,4
1.27851814788,0.0797465303033,0.0277034207247,0.365785081401,0.415000000001,0.45,0,0,2,1036,4
0.174795915938,1.35927399468,0.0560700139597,0.273671098218,0.422000000001,0.45,1,1,2,1037,4
0.0559706134282,0.0401098834043,1.06350302908,0.493138185258,0.355000000001,0.45,2,2,2,1038,4
0.0566316628846,0.0485963845643,0.038941198711,1.18303355509,0.341000000001,0.45,3,3,2,1039,4
0.335069906567,1.16490550059,0.0792929224823,0.253555484091,0.341000000001,0.45,1,1,2,1040,4
0.0416903936482,0.0562948806577,0.0413797795498,1.14806730165,0.411000000001,0.45,3,3,2,1041,4
0.0461576654541,1.14517988635,0.025859626392,0.245887702249,0.281000000001,0.45,2,1,-1,1042,4
1.08644411639,0.488268284362,0.0439862339302,0.221304715761,0.386000000001,0.45,0,0,2,1043,4
0.0602145340867,0.149826518827,1.04085081246,0.247710245164,0.362000000001,0.45,2,2,2,1044,4
0.0332939414867,1.35052117619,0.0296307941157,0.296143182667,0.307000000001,0.45,1,1,2,1045,4
1.07764939133,0.0475165800889,0.0896122668104,0.280666106866,0.427000000001,0.45,0,0,2,1046,4
0.256353723694,0.397360581803,0.192467015528,1.12992600734,0.358000000001,0.45,3,3,2,1047,4
1.2572540538,0.345117075844,0.103491318009,0.256461916214,0.376000000001,0.45,0,0,2,1048,4
0.108090265361,0.112009154076,1.03677194631,0.297829944424,0.293000000001,0.45,1,2,-1,1049,4
0.0729620203842,0.161041958231,1.00492281173,0.228897734055,0.328000000001,0.45,3,2,-1,1050,4
0.162408996058,0.106824066957,1.06781381035,0.15790732655,0.298000000001,0.45,2,2,2,1051,4
0.104278293912,0.285318353637,0.0291468618017,1.03305631714,0.408000000001,0.45,3,3,2,1052,4
0.143454882503,1.21040000555,0.125873341882,0.174545248911,0.366000000001,0.45,1,1,2,1053,4
0.0465645161065,0.100640105476,1.11954115336,0.151324407419,0.376000000001,0.45,2,2,2,1054,4
0.188687545657,1.1392016091,0.107276241085,0.119205117161,0.422000000001,0.45,1,1,2,1055,4
1.43806743779,0.132513830519,0.150765133649,0.161643432517,0.390000000001,0.45,0,0,2,1056,4
0.210900600508,0.276875030545,0.172991089056,1.02724813351,0.414000000001,0.45,3,3,2,1057,4
1.14682357564,0.593499541827,0.153227956653,0.19784954227,0.389000000001,0.45,0,0,2,1058,4
0.0975233275151,0.113459137083,1.13728038706,0.219296729896,0.330000000001,0.45,2,2,2,1059,4
1.12893233822,0.180301891363,0.0547210603222,0.211921518248,0.401000000001,0.45,0,0,2,1060,4
0.244831143505,1.10573385359,0.0729656828228,0.239765509241,0.338000000001,0.45,1,1,2,1061,4
0.0781934067639,0.0896258923977,0.335419183284,1.01538951597,0.409000000001,0.45,3,3,2,1062,4
0.0779936909222,0.0737611596976,1.10629207001,0.108779020727,0.414000000001,0.45,2,2,2,1063,4
0.0789551270886,0.150234612647,0.0467219006518,1.01766049392,0.479000000001,0.45,3,3,1,1064,4
0.079980606335,1.17732644055,0.0106626551135,0.123369257519,0.397000000001,0.45,1,1,2,1065,4
0.141466044068,0.0776786704408,1.13975955431,0.220288004782,0.361000000001,0.45,2,2,2,1066,4
1.02034013448,0.0837217335855,0.105679761643,0.264650821295,0.297000000001,0.45,1,0,-1,1067,4
1.12607082342,0.179076645155,0.0911788377149,0.269752080349,0.346000000001,0.45,0,0,2,1068,4
0.149113012096,0.118535649808,1.09485933502,0.264246924118,0.310000000001,0.45,2,2,2,1069,4
1.04125765521,0.300203696596,0.0408836934708,0.129478911578,0.411000000001,0.45,0,0,2,1070,4
0.109958063063,0.154030564606,0.127025678648,1.00389861794,0.440000000001,0.45,3,3,2,1071,4
1.07737885762,0.14875975329,0.051616396267,0.171165846991,0.443000000001,0.45,0,0,2,1072,4
0.103886279281,0.109747366406,0.0326830569363,1.02864288549,0.446000000001,0.45,3,3,2,1073,4
0.110780595894,0.0888342108039,1.06702276537,0.17678105257,0.440000000001,0.45,2,2,2,1074,4
0.0638897329115,1.25271899224,0.0334642688342,0.229986034078,0.389000000001,0.45,1,1,2,1075,4
0.0549864899279,0.0179538985107,1.03366997542,0.288449986827,0.363000000001,0.45,2,2,2,1076,4
0.0553855655841,0.0345945897693,0.103887484664,1.01334163424,0.364000000001,0.45,3,3,2,1077,4
1.19793876082,0.0247954357126,0.0119956977315,0.200855779011,0.296000000001,0.45,1,0,-1,1078,4
0.0643866634057,0.134727947581,1.01589968589,0.250226818385,0.345000000001,0.45,3,2,-1,1079,4
1.17796977166,0.165790798471,0.0945432013514,0.21865523755,0.349000000001,0.45,0,0,2,1080,4
0.151394263139,0.110394274552,1.08706287897,0.327641723033,0.304000000001,0.45,2,2,2,1081,4
0.114516270763,1.0317308162,0.0938681176258,0.401268302753,0.285000000001,0.45,0,1,-1,1082,4
0.125109402484,1.25422425768,0.402153952369,0.287482029569,0.363000000001,0.45,1,1,2,1083,4
1.38348589286,0.221843034567,0.18314993575,0.384992453341,0.388000000001,0.45,0,0,2,1084,4
1.50181138786,0.26292170944,0.152887293688,0.189123189971,0.400000000001,0.45,0,0,2,1085,5
0.061167916303,0.296998000295,1.17179541278,0.589175437866,0.412000000001,0.45,2,2,2,1086,5
0.0510185310221,1.43547293531,0.0403569168525,0.140625273582,0.334000000001,0.45,1,1,2,1087,5
0.0831954319723,0.0392531327071,0.904261805141,1.00930911871,0.340000000001,0.45,3,3,2,1088,5
0.0480951938844,0.0735283457875,1.01407214622,0.323746831562,0.317000000001,0.45,2,2,2,1089,5
0.260973916655,0.196293042606,0.191444648407,1.15418349298,0.384000000001,0.45,3,3,2,1090,5
0.140108504363,1.34305658596,0.112405465867,0.138624474008,0.363000000001,0.45,1,1,2,1091,5
1.5339963277,0.0533454963631,0.0928329572553,0.133719470853,0.356000000001,0.45,0,0,2,1092,5
0.161848613986,1.08366515765,0.0906434231723,0.225674526499,0.364000000001,0.45,1,1,2,1093,5
0.0274494009528,0.0680010237992,1.16436689931,0.185677149732,0.323000000001,0.45,2,2,2,1094,5
1.60709074697,0.290621568353,0.167399625235,0.125697468377,0.377000000001,0.45,0,0,2,1095,5
0.0441823859088,0.125182541872,1.03353910192,0.315309239099,0.308000000001,0.45,3,2,-1,1096,5
1.25734348147,0.255059318651,1.01566200066e-05,0.208979107086,0.414000000001,0.45,0,0,2,1097,5
1.36188769314,0.0316382701804,0.0439418925329,0.320738487781,0.399000000001,0.45,1,0,-1,1098,5
0.0247986005089,0.0540095296594,1.37469169289,0.377936274425,0.374000000001,0.45,2,2,2,1099,5
0.0815716795343,0.102895764921,0.4127743664,1.27097632358,0.348000000001,0.45,3,3,2,1100,5
0.0370630112486,1.31481300416,0.00929603483775,0.246989439899,0.339000000001,0.45,1,1,2,1101,5
0.0397209787495,0.0768705012586,0.0463586854601,1.18364935985,0.342000000001,0.45,3,3,2,1102,5
0.040169732516,0.108614827535,1.33365307974,0.258399962104,0.307000000001,0.45,2,2,2,1103,5
0.0403173706119,1.22264738395,0.110263969958,0.30217326333,0.303000000001,0.45,1,1,2,1104,5
1.63521240863,0.0694382880868,0.0677870291967,0.353313035514,0.378000000001,0.45,0,0,2,1105,5
0.0766752150587,0.121373882276,1.21131587651,0.438284193765,0.317000000001,0.45,3,2,-1,1106,5
1.21999188834,0.171186692603,0.142215783969,0.321926779864,0.294000000001,0.45,0,0,2,1107,5
0.0266212484478,0.0855784963534,1.22313031705,0.330128173602,0.293000000001,0.45,2,2,2,1108,5
1.03243873279,0.272175891242,0.0244016676526,0.452709224644,0.381000000001,0.45,0,0,2,1109,5
0.0516935946127,0.0425473572622,1.28972546671,0.437486732446,0.417000000001,0.45,2,2,2,1110,5
0.047522698026,0.0254547136083,0.0751830606604,1.33582297242,0.368000000001,0.45,3,3,2,1111,5
0.0870283262849,1.14160625243,0.0233922191797,0.255129438401,0.376000000001,0.45,1,1,2,1112,5
0.0409712927274,0.0312527652763,0.0285911661293,1.30032004843,0.407000000001,0.45,3,3,2,1113,5
0.0400278861475,0.0574812255077,1.28781069662,0.286440062421,0.475000000001,0.45,2,2,1,1114,5
0.109510486319,0.0443898074992,1.17901223711,0.341644479729,0.396000000001,0.45,1,2,-1,1115,5
0.116746073348,1.08896754332,0.0412781725086,0.327802146868,0.366000000001,0.45,2,1,-1,1116,5
1.21794496378,0.0235406665947,0.00788124409499,0.358014695603,0.333000000001,0.45,0,0,2,1117,5
0.0531460190241,1.18588191903,0.0435979869576,0.317870357448,0.265000000001,0.45,1,1,2,1118,5
0.181997515815,0.28457191794,0.43740461233,1.06525386459,0.346000000001,0.45,0,3,-1,1119,5
0.205962051096,0.218773855973,0.156136818092,1.033259182,0.359000000001,0.45,3,3,2,1120,5
1.13897194368,0.0541273209506,0.187611568332,0.200819665528,0.391000000001,0.45,0,0,2,1121,5
0.031824598809,0.0958368532428,1.29577571659,0.374933447888,0.282000000001,0.45,2,2,2,1122,5
0.165069493434,0.365931153931,0.165683657782,1.033687535,0.356000000001,0.45,3,3,2,1123,5
0.287707476065,1.06863544449,0.0813994081142,0.231481163447,0.314000000001,0.45,1,1,2,1124,5
0.0694914317643,0.0670516344023,1.03526092416,0.291274350256,0.333000000001,0.45,2,2,2,1125,5
0.0342397445275,1.36051029613,0.0237836672075,0.331178596093,0.282000000001,0.45,1,1,2,1126,5
0.0667650617707,0.0286278927446,0.0218370553477,1.10235240219,0.342000000001,0.45,3,3,2,1127,5
1.11298620314,0.180751456446,0.0195359142429,0.215725960519,0.349000000001,0.45,0,0,2,1128,5
0.0904135256561,0.0769812933549,0.0482277629487,1.01875887061,0.402000000001,0.45,3,3,2,1129,5
0.0362940572012,0.0667226452807,1.02853336105,0.199823201828,0.439000000001,0.45,2,2,2,1130,5
1.06424490014,0.106130413345,0.00781975554376,0.259674898446,0.386000000001,0.45,0,0,2,1131,5
0.0394342867527,1.00302845185,0.0112152231973,0.339179517278,0.325000000001,0.45,1,1,2,1132,5
1.14958762093,0.084306657847,0.128728107683,0.346805026344,0.334000000001,0.45,0,0,2,1133,5
0.147729433022,0.134528713058,1.0215757605,0.401145815337,0.319000000001,0.45,2,2,2,1134,5
0.0734073508849,0.153825907584,0.0179426772712,1.04020483858,0.349000000001,0.45,3,3,2,1135,5
1.183017512,0.084888151071,0.062100656512,0.209280157804,0.285000000001,0.45,1,0,-1,1136,5
0.0159152680751,0.0457300375883,1.11680906077,0.273432762557,0.265000000001,0.45,2,2,2,1137,5
1.17709543775,0.0594824002545,0.0340495305069,0.348684145458,0.302000000001,0.45,1,0,-1,1138,5
0.0933775804268,0.100332324063,0.0416754961587,1.12740857805,0.419000000001,0.45,3,3,2,1139,5
1.4122115657,0.243358977882,0.0845868050084,0.267558554771,0.382000000001,0.45,0,0,2,1140,5
0.0497911761032,0.0737915479565,0.0411157641777,1.15788824728,0.368000000001,0.45,3,3,2,1141,5
0.0788493635565,0.258618961399,1.22293258209,0.235232714006,0.424000000001,0.45,2,2,2,1142,5
1.3248960097,0.470638065901,0.0156707333032,0.313414695143,0.383000000001,0.45,0,0,2,1143,5
1.20876858085,0.0287853680432,0.0314697636883,0.352979215074,0.421000000001,0.45,1,0,-1,1144,5
1.13477893198,0.0318905881114,0.0858130453405,0.326528064881,0.441000000001,0.45,0,0,2,1145,5
0.0960211606424,0.0313031517645,1.14567122138,0.367173070137,0.398000000001,0.45,2,2,2,1146,5
0.0829480826293,0.0747017061183,0.00797240339832,1.23316633463,0.412000000001,0.45,3,3,2,1147,5
0.0729487363597,1.29194679652,0.0126770599533,0.194391142849,0.320000000001,0.45,1,1,2,1148,5
0.0786462589314,0.0523920503673,0.0620740105804,1.0524678217,0.353000000001,0.45,3,3,2,1149,5
0.0651395557447,0.079037003507,1.23269889616,0.168188794329,0.499000000001,0.45,2,2,1,1150,5
0.0631014890831,1.30141837557,0.00781773778141,0.248107517089,0.440000000001,0.45,1,1,2,1151,5
1.34058460692,0.0348263748304,0.0145650274155,0.373112779924,0.405000000001,0.45,0,0,2,1152,5
0.0602388778567,0.0315110824029,0.0245740161835,1.03220885687,0.407000000001,0.45,3,3,2,1153,5
1.0402119828,0.0717863050588,0.00947042989229,0.195020689284,0.392000000001,0.45,0,0,2,1154,5
0.0135522833971,1.24803734019,0.0490286792155,0.208349588953,0.476000000001,0.45,1,1,1,1155,5
0.0189076082931,0.0801118078601,1.13837892857,0.161149145465,0.551000000001,0.45,2,2,1,1156,5
1.24611608801,0.0627677573979,0.0238835918998,0.295272062703,0.529000000001,0.45,0,0,1,1157,5
0.0510598449125,0.0284572809453,1.01249511077,0.363619184642,0.495000000001,0.45,2,2,1,1158,5
0.0583666293834,0.079277595199,0.0156520452966,1.08159748771,0.456000000001,0.45,3,3,1,1159,5
0.0547476499159,1.4202550706,0.0156277951562,0.169929230361,0.342000000001,0.45,1,1,2,1160,5
0.0587198439112,0.0329532806035,1.20079579104,0.261700774746,0.313000000001,0.45,2,2,2,1161,5
0.0595542234586,1.13254894577,0.045968472261,0.176339483828,0.335000000001,0.45,1,1,2,1162,5
0.059876546061,0.0366454680989,0.0764066945201,1.20671056897,0.335000000001,0.45,3,3,2,1163,5
0.0614697417581,1.01801405869,0.0182114089801,0.16961756899,0.331000000001,0.45,0,1,-1,1164,5
