force_0,force_1,force_2,force_3,rt,rt_threshold,target_finger,selected_finger,score,trial,run
1.24125048735,0.402034333109,0.238212363122,0.149185768901,0.492,0.45,0,0,1,0,0
0.416870483677,0.453393712236,1.14305606921,0.420414840864,0.475,0.45,2,2,1,1,0
0.480584557771,0.216544278128,0.273307808285,1.31793602922,0.35,0.45,3,3,2,2,0
0.404431956093,1.25373333,0.153511804131,0.275263963751,0.256,0.45,1,1,2,3,0
0.365117552426,0.57052062207,0.197589146065,1.1218138981,0.274,0.45,3,3,2,4,0
0.0604923203817,0.0754972200368,1.02456062476,0.30504105545,0.316,0.45,2,2,2,5,0
1.04871011533,0.328010416674,0.143439798634,0.34375733365,0.282,0.45,1,0,-1,6,0
1.25275891471,0.190220643947,0.396321239633,0.36467842343,0.304,0.45,0,0,2,7,0
0.0955963034957,0.252426167737,1.10356385558,0.192814356762,0.309,0.45,1,2,-1,8,0
0.0877746687801,0.578078136745,0.0887311088204,1.0457523312,0.332,0.45,2,3,-1,9,0
0.663094641913,1.07726697403,0.122425288925,0.2808963497,0.296,0.45,0,1,-1,10,0
0.241757589232,0.310570515341,0.235997917617,1.17782044231,0.318,0.45,3,3,2,11,0
0.340306663442,1.03739760207,0.0682940286568,0.187313579428,0.264,0.45,0,1,-1,12,0
0.365300084614,0.14012711254,1.06392153755,0.347399478032,0.326,0.45,1,2,-1,13,0
0.0898266667171,0.173285686217,1.20626023285,0.321699660349,0.349,0.45,2,2,2,14,0
0.128759253505,0.0834639264342,0.478135031741,1.09961583997,0.404,0.45,3,3,2,15,0
0.0857229607215,1.06770477843,0.105244627819,0.202542842537,0.351,0.45,1,1,2,16,0
0.171043886809,0.273714305449,0.0859147401882,1.10402262272,0.334,0.45,3,3,2,17,0
0.113539506194,0.249167777003,1.01817766404,0.229736124639,0.434,0.45,2,2,2,18,0
0.4418482167,1.10440395133,0.0913203356049,0.360844009175,0.354,0.45,1,1,2,19,0
1.15560368872,0.128519204692,0.166220872425,0.278611524307,0.289,0.45,0,0,2,20,0
0.141314590436,0.0618379374934,1.06354683555,0.26727057184,0.323,0.45,2,2,2,21,0
0.329951706244,1.04688663072,0.0532276112319,0.304147876818,0.255,0.45,0,1,-1,22,0
0.207477258165,0.0900428288543,0.202681449489,1.07572354912,0.338,0.45,3,3,2,23,0
0.409211442233,1.06321453057,0.0659759330671,0.219496421568,0.29,0.45,0,1,-1,24,0
1.2952099389,0.028059110757,0.4789425373,0.356600854204,0.362,0.45,1,0,-1,25,0
0.0934629154832,0.0929731124553,1.13895515676,0.309229947179,0.363,0.45,2,2,2,26,0
0.145689249817,0.434073958342,0.0746261482533,1.06574907486,0.351,0.45,3,3,2,27,0
0.0885577816174,0.0824137969348,1.05731498838,0.309169733538,0.416,0.45,2,2,2,28,0
0.253850043544,1.00019984697,0.0641785917632,0.295221824331,0.341,0.45,1,1,2,29,0
0.390998624921,0.0279008786062,0.213229787505,1.06494414104,0.392,0.45,3,3,2,30,0
1.10065331865,0.145515157144,0.0947085411623,0.372258921916,0.31,0.45,0,0,2,31,0
0.0714417723063,0.0706022700627,1.20924015524,0.367509206621,0.348,0.45,2,2,2,32,0
1.02546396869,0.259911051237,0.158358874334,0.375794053983,0.261,0.45,0,0,2,33,0
0.133876505058,0.053219245495,0.13611942977,1.05272096738,0.355,0.45,3,3,2,34,0
0.581990977538,1.10235636272,0.0371062245451,0.243876217841,0.274,0.45,1,1,2,35,0
1.08147605069,0.179187814992,0.644900397911,0.379961203145,0.298,0.45,0,0,2,36,0
0.372097542183,0.409891564502,0.167494880689,1.01827580689,0.298,0.45,3,3,2,37,0
0.58631668728,1.15995497601,0.0514415412004,0.239727467666,0.261,0.45,1,1,2,38,0
0.083711822072,0.132911380875,1.16267007192,0.143742968439,0.369,0.45,2,2,2,39,0
0.15544125228,0.229812535706,0.0684695921178,1.03579241582,0.356,0.45,3,3,2,40,0
0.301571248418,0.129242008012,1.05843538502,0.188928575643,0.348,0.45,2,2,2,41,0
0.248818810415,1.06601525394,0.0809345707214,0.162641861458,0.291,0.45,1,1,2,42,0
0.0851079738697,0.077007232518,0.0432594590879,1.0667799346,0.311,0.45,3,3,2,43,0
1.11252154364,0.216972992311,0.0255311714767,0.191146857818,0.261,0.45,0,0,2,44,0
0.170231629988,0.197920982891,0.070548075344,1.0111899696,0.344,0.45,2,3,-1,45,0
1.22581722474,0.263012154014,0.172705936322,0.10802903921,0.379,0.45,0,0,2,46,0
1.05844820466,0.407517276636,0.0988271506377,0.172856073326,0.368,0.45,1,0,-1,47,0
1.17182298129,0.10199183501,0.0749748676718,0.157175478195,0.381,0.45,0,0,2,48,0
0.437638716113,1.17549022949,0.0832357861001,0.191453165326,0.341,0.45,1,1,2,49,0
0.0461473674759,0.0475000081068,0.0764038314973,1.04002724219,0.359,0.45,3,3,2,50,0
0.074187326961,0.0844272317754,1.06154850725,0.320466397302,0.328,0.45,2,2,2,51,0
0.0651804058357,1.26446312875,0.0313996798084,0.29267509158,0.262,0.45,1,1,2,52,0
0.142625023511,0.651597379447,1.16486466465,0.364602894394,0.346,0.45,2,2,2,53,0
0.30814588577,0.179242919797,0.106085344399,1.04315291546,0.372,0.45,3,3,2,54,0
1.15293781779,0.0944916028268,0.0632461604944,0.213081249697,0.294,0.45,0,0,2,55,0
0.104202583257,0.0791538525533,0.4282833984,1.09521681697,0.385,0.45,3,3,2,56,0
0.337523158211,1.25205711941,0.0356698161765,0.1580717211,0.293,0.45,1,1,2,57,0
1.31181394605,0.074222378717,0.031660189364,0.278216284195,0.338,0.45,0,0,2,58,0
0.116187835407,0.0861599943915,1.10911700243,0.330489605716,0.345,0.45,2,2,2,59,0
1.38326154673,0.124133195856,0.0318470609262,0.358280051712,0.395,0.45,0,0,2,60,0
0.154782950823,1.20876189061,0.0374013707717,0.39336760762,0.418,0.45,1,1,2,61,0
0.134124921437,0.0860268357326,0.100725106964,1.01222803504,0.338,0.45,3,3,2,62,0
0.115498675463,0.0812598157761,1.10365348374,0.280432414481,0.379,0.45,2,2,2,63,0
0.473426406365,1.14264620856,0.0585611869316,0.216263558237,0.381,0.45,1,1,2,64,0
0.101777321909,0.0927463160026,1.02351296754,0.232971003487,0.376,0.45,2,2,2,65,0
0.106341132908,1.06540937677,0.039310054714,0.290130316746,0.347,0.45,3,1,-1,66,0
0.0809857972433,1.20717900207,0.0390847138486,0.158822171659,0.34,0.45,1,1,2,67,0
1.22260878357,0.0427397162819,0.0390651507268,0.380958969032,0.324,0.45,0,0,2,68,0
0.0407836667685,0.104113020909,1.08168669321,0.323166421629,0.324,0.45,2,2,2,69,0
0.437105841385,1.05492077069,0.0582364467791,0.338419211082,0.274,0.45,0,1,-1,70,0
0.197821314976,0.0598220155393,0.467393332357,1.02214769219,0.352,0.45,3,3,2,71,0
1.09491896405,0.262543626872,0.229383848863,0.209493346365,0.353,0.45,0,0,2,72,0
0.0700404186081,0.419068955378,1.00304533328,0.358668716853,0.368,0.45,2,2,2,73,0
0.216929732308,1.16663106051,0.0693052867803,0.30533342302,0.27,0.45,1,1,2,74,0
0.0581848385147,0.0786978551293,0.843889337883,1.04915966046,0.353,0.45,3,3,2,75,0
0.170509918195,1.00360953183,0.0671405269547,0.253519862218,0.312,0.45,1,1,2,76,0
0.0589428579333,0.0617947591509,1.05887324859,0.216131548806,0.349,0.45,2,2,2,77,0
0.0604381067313,0.216337165673,0.0499137979665,1.04933511871,0.36,0.45,3,3,2,78,0
0.06034105863,1.13624946517,0.0411205720006,0.126487144416,0.248,0.45,0,1,-1,79,0
0.166933663999,0.0622971904169,0.124510739677,1.0084894807,0.322,0.45,3,3,2,80,0
0.123417610582,0.60926474077,1.00327874818,0.244143527613,0.38,0.45,2,2,2,81,0
1.00139869812,0.952315305219,0.0332137626326,0.281575062408,0.327,0.45,0,0,2,82,0
0.207913803386,1.13973398637,0.504198810188,0.260561101546,0.326,0.45,1,1,2,83,0
1.32078926751,0.236734439661,0.119780225691,0.321737379927,0.321,0.45,0,0,2,84,0
0.248418282123,1.09579555553,0.121239829291,0.313157976569,0.276,0.45,1,1,2,85,0
0.419424652715,0.162910158368,1.01578287881,0.310992429367,0.304,0.45,2,2,2,86,0
0.327857404012,0.347019273559,0.0505811208621,1.04860789182,0.268,0.45,3,3,2,87,0
0.327923247338,1.03499111697,0.0405708431223,0.202980826724,0.298,0.45,1,1,2,88,0
0.187901561898,0.15108561459,0.0560654895429,0.293847737349,0.7,0.45,3,-1,0,90,0
0.187676910705,0.105541699521,0.0352203891384,1.11405988241,0.105,0.45,2,3,-1,90,0
1.1766724156,0.100851214152,0.0878241627161,0.302272006502,0.42,0.45,0,0,2,91,0
0.0868237766545,0.133878807776,1.07120407546,0.343906444816,0.395,0.45,2,2,2,92,0
0.335839022451,1.09253060234,0.0545364216871,0.289196579205,0.285,0.45,1,1,2,93,0
1.02188199475,0.0796466052233,0.109229141015,0.326994577926,0.303,0.45,0,0,2,94,0
0.248773721192,0.216218098793,0.243823333555,1.04914559469,0.326,0.45,3,3,2,95,0
0.480324921611,1.04024071892,0.0439210835717,0.223187585145,0.293,0.45,0,1,-1,96,0
0.115618693791,0.159161311986,1.05116030241,0.366425456166,0.37,0.45,2,2,2,97,0
0.212349955621,0.386371771391,0.0553350997676,1.07855556414,0.4,0.45,3,3,2,98,0
0.199404719966,1.16862443323,0.0536172940538,0.241433141596,0.404,0.45,1,1,2,99,0
0.104649545216,0.248109705581,1.02013236596,0.260975087325,0.387,0.45,2,2,2,100,0
0.235596727119,1.0169582953,0.0983955616653,0.22838361331,0.39,0.45,1,1,2,101,0
0.161871785339,0.174168739253,0.170522813945,1.04439472337,0.429,0.45,3,3,2,102,0
1.0267458773,0.242248799419,0.0377988306539,0.22165822708,0.405,0.45,0,0,2,103,0
0.17511131705,0.223582985518,0.0895299227641,1.03839431031,0.475,0.45,3,3,1,104,0
0.130481987835,0.526523475099,1.05887228537,0.290188468114,0.584,0.45,2,2,1,105,0
1.10951271429,0.206706140667,0.0477742027906,0.242180442644,0.393,0.45,0,0,2,106,0
0.277210116156,1.1127480521,0.0853238152931,0.253130173661,0.311,0.45,1,1,2,107,0
1.15349907202,0.948458520476,0.0624743956828,0.218528541249,0.344,0.45,0,0,2,108,0
0.293109750083,0.177681641701,0.548533929105,1.08685164481,0.382,0.45,3,3,2,109,0
0.387020768115,1.06322091089,0.126955908637,0.261358387592,0.379,0.45,1,1,2,110,0
0.262160295973,0.323248955811,1.03288060097,0.293446590854,0.4,0.45,2,2,2,111,0
0.356622411973,1.04326573848,0.048132264188,0.218461932399,0.325,0.45,1,1,2,112,0
0.646744796259,0.322023646049,0.146111655066,1.02345415687,0.355,0.45,3,3,2,113,0
0.39236606046,0.264068292001,1.05664276695,0.268976090616,0.453,0.45,2,2,1,114,0
1.24805948775,0.460948263642,0.0482097831078,0.32156339137,0.346,0.45,0,0,2,115,0
0.156165740387,0.0964699071133,1.04529066791,0.401251030922,0.334,0.45,2,2,2,116,0
0.283179739591,0.520433456514,0.0523390332912,1.0558992498,0.371,0.45,3,3,2,117,0
1.28130400464,0.215051065818,0.0544542379503,0.158153043703,0.337,0.45,0,0,2,118,0
1.09313058681,0.172677449561,0.0961952802498,0.321655869094,0.368,0.45,1,0,-1,119,0
1.25959185518,0.144964645215,0.0627260459583,0.261666033228,0.383,0.45,0,0,2,120,0
0.230437712809,0.165683961399,1.00940234248,0.299347955723,0.36,0.45,2,2,2,121,0
0.32888546331,0.343292661609,0.0381511319436,1.00906177001,0.378,0.45,3,3,2,122,0
0.25342396606,1.0617557753,0.0567123688327,0.204030073613,0.309,0.45,1,1,2,123,0
0.0844193001204,0.0563130087427,1.11713763807,0.278940268668,0.301,0.45,2,2,2,124,0
0.268239818032,1.05881241815,0.0474599443318,0.190520964196,0.333,0.45,1,1,2,125,0
0.147336350091,0.200728561676,0.0761199839307,1.00456997651,0.375,0.45,3,3,2,126,0
0.0935839274724,0.0693961602738,1.07161860183,0.231536938156,0.376,0.45,2,2,2,127,0
1.15273102965,0.13403739406,0.0395755611891,0.281362106125,0.341,0.45,0,0,2,128,0
0.247534469943,1.10204488126,0.0793050839449,0.353753233672,0.373,0.45,1,1,2,129,0
1.00521825846,0.0998712330472,0.0713362803607,0.339803415512,0.453,0.45,0,0,1,130,0
0.0621821987124,0.0825884716872,0.0542863559965,1.03743802675,0.446,0.45,3,3,2,131,0
1.05948340644,0.137285125205,0.0478271444792,0.106979572552,0.392,0.45,0,0,2,132,0
1.13726711742,0.0559114458417,0.471872030828,0.237921185493,0.345,0.45,1,0,-1,133,0
0.0752980648291,0.0590058012251,0.0369311413018,1.12023766567,0.318,0.45,3,3,2,134,0
0.0767550390296,0.124549116438,1.03406709077,0.447859218784,0.448,0.45,2,2,2,135,0
0.0869351607637,1.03222388398,0.0547188834108,0.283187707359,0.398,0.45,1,1,2,136,0
0.158544790452,0.0501452296613,0.0895870975344,0.369289665777,0.7,0.45,2,-1,0,138,0
0.0830505104094,0.0486481113642,0.0730241252561,1.07916747705,0.482,0.45,3,3,1,138,0
0.0898318562451,1.13571577667,0.0486852663202,0.181607805819,0.345,0.45,1,1,2,139,0
1.05326244353,0.0621302295673,0.0539977128253,0.206157750054,0.317,0.45,0,0,2,140,0
0.0443655322007,0.159029014709,1.21555262593,0.798558104611,0.383,0.45,2,2,2,141,0
1.3669319075,0.835625141035,0.0508744827029,0.190491119233,0.334,0.45,0,0,2,142,0
0.0558521868197,0.0621357086552,0.662967219243,1.04287454471,0.373,0.45,3,3,2,143,0
1.25626323704,0.78316054925,0.0488528643183,0.290498897408,0.401,0.45,0,0,2,144,0
0.0562334640268,1.18913057459,0.0973743116291,0.439329498481,0.33,0.45,1,1,2,145,0
0.0503474491613,1.0246936418,0.0789689134356,0.417541540655,0.303,0.45,3,1,-1,146,0
0.0790299789042,0.106530330627,1.0444210423,0.275374112486,0.372,0.45,2,2,2,147,0
0.0585630129731,0.0541701318527,0.0497682443199,1.01693825587,0.404,0.45,3,3,2,148,0
0.192969314755,1.00450580868,0.0398983545607,0.313285697862,0.295,0.45,1,1,2,149,0
0.0685829764282,0.0477293215939,1.08749630603,0.275746032853,0.346,0.45,2,2,2,150,0
1.30142652077,0.0459880221215,0.0392459514002,0.263683676979,0.354,0.45,0,0,2,151,0
0.0967204619782,0.0571130715929,0.0485757412499,1.01697364563,0.424,0.45,3,3,2,152,0
1.21508284612,0.209377527619,0.0398444814668,0.233151691653,0.504,0.45,0,0,1,153,0
0.0798095468475,0.0630899135513,1.05011581855,0.438567336643,0.444,0.45,2,2,2,154,0
0.0921174304915,1.15031724864,0.0470460806286,0.322096116817,0.461,0.45,1,1,1,155,0
0.0985663145147,1.07747341174,0.107689223523,0.293211504471,0.448,0.45,0,1,-1,156,0
0.127963413115,0.0841868800654,1.07082749133,0.312675201218,0.396,0.45,2,2,2,157,0
0.116496983295,0.134646071657,0.0692450501589,1.03264118394,0.288,0.45,3,3,2,158,0
0.116110190661,1.00349969513,0.0485774766262,0.193755853099,0.189,0.45,1,1,2,159,0
0.140154552945,0.0857868882734,0.66344880239,1.05371404222,0.421,0.45,3,3,2,160,0
0.141745588868,0.143579538019,1.02410583754,0.278614499202,0.435,0.45,2,2,2,161,0
0.155095129414,1.04937376809,0.0894820220337,0.199151376762,0.378,0.45,1,1,2,162,0
0.129942563519,0.064691094578,1.05263947105,0.363133377067,0.387,0.45,2,2,2,163,0
1.16495668276,0.113942254606,0.0941655521172,0.467117891689,0.354,0.45,0,0,2,164,0
0.0715356931657,0.0891356122384,0.0854670249258,1.01694643148,0.366,0.45,3,3,2,165,0
1.00266334628,0.178912001356,0.0498245884328,0.23390426634,0.351,0.45,0,0,2,166,0
1.01180997708,0.6232054453,0.0728190938463,0.242397677476,0.334,0.45,1,0,-1,167,0
1.02603516626,0.758641757515,0.0560182760361,0.219101491615,0.412,0.45,0,0,2,168,0
0.149591270848,0.0718979257682,0.522969989975,1.03408312791,0.417,0.45,3,3,2,169,0
0.123952585255,0.0916754875902,1.04519040255,0.302346005408,0.418,0.45,2,2,2,170,0
0.122073539409,1.01629915507,0.0550799047856,0.31086779184,0.392,0.45,1,1,2,171,0
0.0968394925717,0.158040890096,0.0592722928777,1.0856297191,0.299,0.45,3,3,2,172,0
0.200936135687,1.01150602823,0.0550993791664,0.182039945698,0.361,0.45,1,1,2,173,0
0.101802688194,1.10734207849,0.0551751621883,0.180586672292,0.345,0.45,2,1,-1,174,0
1.0984254284,0.10944589109,0.102049699712,0.353964615431,0.327,0.45,0,0,2,175,0
0.160022117307,1.14578632785,0.0803156580709,0.202801765661,0.293,0.45,1,1,2,176,0
1.00156615719,0.26972231633,0.0443144931102,0.572209702694,0.379,0.45,0,0,2,177,0
0.174070923324,1.03774043172,0.0473995153865,0.292885899698,0.329,0.45,2,1,-1,178,0
0.140641830358,0.12713564696,0.0627135062624,1.1120485318,0.377,0.45,3,3,2,179,0
1.16946010477,0.373570625451,0.0597184580265,0.218480371531,0.401,0.45,0,0,2,180,0
0.0872082664985,1.13952706927,0.14086221798,0.134778274737,0.46,0.45,1,1,1,181,0
0.520484864855,0.356168553353,0.14419991128,1.13116526273,0.442,0.45,3,3,2,182,0
0.100009076917,0.293768195237,1.02864613575,0.4107080635,0.542,0.45,2,2,1,183,0
0.130675189485,0.0863015165997,0.270506348694,1.07460523584,0.495,0.45,3,3,1,184,0
0.269822322199,1.11662327459,0.0595323392974,0.244822823801,0.415,0.45,1,1,2,185,0
0.194341258753,0.1233556872,1.02754366605,0.323915711309,0.391,0.45,2,2,2,186,0
1.03650580669,0.266179002654,0.185773516352,0.355374067297,0.304,0.45,0,0,2,187,0
0.110084442498,0.101008647224,0.658993229237,1.0366842939,0.434,0.45,3,3,2,188,0
0.44072844243,1.00228799975,0.0559045006592,0.291849835712,0.334,0.45,0,1,-1,189,0
0.176691587872,0.13420018323,1.0378414761,0.362928514585,0.343,0.45,2,2,2,190,0
0.291916685725,1.0874936836,0.101361562523,0.329330841718,0.402,0.45,1,1,2,191,0
1.16115503565,0.217306909706,0.0660997087072,0.299218726474,0.376,0.45,0,0,2,192,0
0.214068924869,0.107141911281,1.06845411664,0.322872798472,0.4,0.45,2,2,2,193,0
0.191680410056,0.184996007815,0.0596894302351,1.01430085682,0.342,0.45,3,3,2,194,0
0.253021007821,1.07396036218,0.0402614392057,0.265437998458,0.318,0.45,1,1,2,195,0
0.176418469465,0.138638692413,1.03001982214,0.34727545948,0.288,0.45,2,2,2,196,0
0.236500591276,1.1477688771,0.0602245921306,0.475107060698,0.36,0.45,1,1,2,197,0
0.129410595555,0.0622588846833,0.313428003903,1.05376198409,0.394,0.45,3,3,2,198,0
1.07623932134,0.0484792721793,0.239882525619,0.297613685869,0.352,0.45,0,0,2,199,0
0.195639999268,1.00591363044,0.122210337528,0.290821608041,0.344,0.45,1,1,2,200,0
1.02044723248,0.959973927542,0.0564172046742,0.220537341955,0.385,0.45,0,0,2,201,0
0.219741517509,0.0734347345866,1.07523725527,0.342711511904,0.349,0.45,3,2,-1,202,0
0.178657544764,0.274536791658,1.13747020868,0.326224829328,0.44,0.45,2,2,2,203,0
1.0775785046,0.129502315134,0.0462771821818,0.307290692016,0.373,0.45,0,0,2,204,0
0.157892564706,0.166737185748,0.0660706854765,1.04129299149,0.363,0.45,3,3,2,205,0
0.144164594507,0.125302324206,1.04213358865,0.813775948368,0.476,0.45,2,2,1,206,0
0.12804527121,1.08726428726,0.0316337928273,0.243830963475,0.414,0.45,1,1,2,207,0
0.141809615196,0.0699191068602,0.170227544333,1.04268855841,0.398,0.45,3,3,2,208,0
0.379573753186,1.13621660024,0.0282669881149,0.207796674214,0.408,0.45,1,1,2,209,0
0.0620851191246,0.0738008090348,1.11498796482,0.351137882172,0.364,0.45,2,2,2,210,0
1.20902703342,0.497038238043,0.0400490424178,0.202644400661,0.389,0.45,0,0,2,211,0
0.172829084886,1.07291704305,0.0943806546066,0.312928387496,0.414,0.45,1,1,2,212,0
1.17936518898,0.320166836227,0.0706342506145,0.115236678965,0.39,0.45,0,0,2,213,0
0.113304526408,0.0990366779298,1.060804228,0.289277165339,0.368,0.45,2,2,2,214,0
0.129155948706,0.0800335455251,0.028564431503,1.01557096095,0.359,0.45,3,3,2,215,0
1.17231460286,0.518203228165,0.0383686305848,0.210704187304,0.376,0.45,0,0,2,216,0
0.145626603747,0.490395067703,1.20961685215,0.403623799866,0.531,0.45,2,2,1,217,1
1.21844240804,0.0996051520246,0.0625125479575,0.247526779315,0.383,0.45,0,0,2,218,1
1.115483406,0.0327367495415,0.0387689011241,0.241983877497,0.338,0.45,1,0,-1,219,1
0.204678293108,0.116520197002,0.0489758478288,1.09847852682,0.328,0.45,3,3,2,220,1
0.103999198281,1.5790878217,0.487457744326,0.21936056815,0.289,0.45,1,1,2,221,1
1.00788145206,0.196393885824,0.0569497585868,0.38873525099,0.268,0.45,0,0,2,222,1
0.191847217415,0.101375638254,0.76153895552,1.07595818038,0.337,0.45,3,3,2,223,1
1.53120114606,0.0691831705924,0.0405683691452,0.206645709589,0.307,0.45,0,0,2,224,1
0.16864385768,0.0776310767724,1.1128289374,0.372160063867,0.348,0.45,2,2,2,225,1
0.160882274422,1.03332143055,0.0552815139761,0.300930291967,0.279,0.45,1,1,2,226,1
0.157087167845,0.0941173317985,1.11388639223,0.306818508919,0.332,0.45,2,2,2,227,1
0.151686686497,0.0662048747657,0.068253633251,1.00848476831,0.337,0.45,3,3,2,228,1
1.22266056094,0.099117135788,0.0559790781291,0.170895552476,0.254,0.45,2,0,-1,229,1
0.152152288698,1.02137274371,0.0514948596305,0.35771822689,0.304,0.45,0,1,-1,230,1
1.52543942611,0.0711949851682,0.648935005182,0.354281523318,0.39,0.45,1,0,-1,231,1
0.100782163022,0.0728352123309,0.054285095294,1.14108532687,0.404,0.45,3,3,2,232,1
1.22469084071,0.106788632495,0.0690017691967,0.23558346061,0.342,0.45,0,0,2,233,1
0.1230175679,0.0832424286418,0.745895776385,1.06094767875,0.335,0.45,3,3,2,234,1
0.132808738406,1.25335215967,0.0673092369819,0.184628427046,0.297,0.45,1,1,2,235,1
1.48719415037,0.0703171834797,0.182616109563,0.399604765051,0.365,0.45,0,0,2,236,1
0.107887987323,0.0703130360317,1.20536014903,0.327761247205,0.283,0.45,2,2,2,237,1
0.121564417289,1.13303503535,0.0546919291412,0.19483497524,0.374,0.45,1,1,2,238,1
0.115072076127,0.0628043203784,1.03742253908,0.277194744751,0.431,0.45,2,2,2,239,1
0.118060991447,0.0634546802579,0.0377454372842,1.10679689884,0.411,0.45,3,3,2,240,1
0.118667804962,0.159288930942,1.10873236045,0.248715007798,0.454,0.45,2,2,1,241,1
0.12010529709,1.34532798379,0.046875014948,0.357238825347,0.481,0.45,1,1,1,242,1
0.16118607601,0.0722990619049,0.0903373143892,1.17225700793,0.42,0.45,3,3,2,243,1
1.19162174688,0.0634154106023,0.0501610616,0.241452325939,0.353,0.45,0,0,2,244,1
0.103426486556,0.0663021509033,0.0820901296828,1.13353912686,0.4,0.45,3,3,2,245,1
0.110968214782,1.28478805126,0.0575110326468,0.251570112284,0.344,0.45,1,1,2,246,1
4.39976346793,0.0640456793715,0.0351030364567,0.325946416963,0.4,0.45,0,0,2,247,1
0.0942898200251,1.05092747142,0.0673460671455,0.317719912021,0.379,0.45,1,1,2,248,1
0.0973876313729,0.0468750000316,1.07252262107,0.456484544664,0.377,0.45,2,2,2,249,1
0.0976081397513,0.0550048826652,0.105875794451,1.08275010238,0.373,0.45,3,3,2,250,1
0.0964080179735,0.0510370123417,1.04257256357,0.112325711856,0.353,0.45,2,2,2,251,1
0.0974753815277,1.06991864847,0.0546891083491,0.237201134333,0.307,0.45,0,1,-1,252,1
0.105063426527,0.0832805754828,1.094727479,0.526918740444,0.362,0.45,2,2,2,253,1
0.111390749098,0.314182262565,0.0313835567006,1.02887790584,0.38,0.45,3,3,2,254,1
0.118264723665,1.18284438732,0.0312548107348,0.120124615639,0.284,0.45,0,1,-1,255,1
1.40157233729,0.0673112827448,0.133190444619,0.313803849566,0.363,0.45,1,0,-1,256,1
1.35095529348,0.0554696539726,0.109900550833,0.409870771237,0.431,0.45,0,0,2,257,1
0.109774758519,0.155697727549,0.0855593827396,1.0696909891,0.37,0.45,3,3,2,258,1
0.110179152555,1.10760017373,0.0445480734781,0.190332974615,0.319,0.45,1,1,2,259,1
0.110760649323,0.0546876371498,1.20467515422,0.414750666193,0.296,0.45,2,2,2,260,1
1.35772560154,0.246357810976,0.0703125481289,0.284913262312,0.351,0.45,1,0,-1,261,1
0.279226686143,0.0730049627172,0.0703101250706,1.06955473226,0.396,0.45,3,3,2,262,1
0.177959163429,0.543358617271,1.15455603466,0.324812343919,0.437,0.45,2,2,2,263,1
1.11199196841,0.126499789923,0.102696726408,0.335606743491,0.349,0.45,0,0,2,264,1
0.140550218393,0.109566633753,1.06546795719,0.924959749118,0.453,0.45,2,2,1,265,1
1.49298465315,0.217844083413,0.0547313437535,0.174123763606,0.362,0.45,0,0,2,266,1
0.104190609669,1.23865418519,0.0624919438496,0.303671432433,0.312,0.45,1,1,2,267,1
0.110519871459,0.195446164853,0.0594481047512,1.15027154943,0.301,0.45,3,3,2,268,1
1.0063956569,0.0722328098936,0.0467509531855,0.15528300785,0.368,0.45,1,0,-1,269,1
1.12354959217,0.0661749131345,0.0614698333533,0.315558459765,0.372,0.45,0,0,2,270,1
0.113824670938,0.0835382109207,0.0745824297004,1.07528764007,0.352,0.45,3,3,2,271,1
0.124192547219,0.103891810721,1.15050230163,0.382350346878,0.421,0.45,2,2,2,272,1
0.127184167426,1.04551729573,0.0703129011603,0.17455592027,0.391,0.45,1,1,2,273,1
0.120492664066,0.0682754144406,1.06031935792,0.151074112441,0.411,0.45,2,2,2,274,1
0.118112944287,0.062770020545,0.0545620089183,1.18606072641,0.42,0.45,3,3,2,275,1
1.5029662132,0.0625396289307,0.0533690068306,0.183449252245,0.331,0.45,0,0,2,276,1
0.0797257468751,0.0827790152438,1.19123094191,0.288729193581,0.372,0.45,2,2,2,277,1
0.0830653479584,0.12037778113,0.0392355994221,1.02153343318,0.386,0.45,3,3,2,278,1
0.0872107300505,1.07122100772,0.0335889806584,0.198889008303,0.376,0.45,1,1,2,279,1
4.11737829365,0.0852339363506,0.04792759513,0.110986843107,0.421,0.45,0,0,2,280,1
1.26911780304,0.0628089407308,0.103923844894,0.255300638086,0.394,0.45,1,0,-1,281,1
0.0924364258726,0.0739652705821,0.0610235461622,1.0422091819,0.487,0.45,3,3,1,282,1
2.22869942012,0.05761064872,0.0536527289361,0.125572123259,0.368,0.45,0,0,2,283,1
0.105317392638,0.0548451169789,0.0385100106925,1.09143550128,0.503,0.45,3,3,1,284,1
0.0296948289946,0.112946005772,1.26857212559,0.417861444088,0.402,0.45,2,2,2,285,1
0.109879720184,1.23270839781,0.0403570270328,0.13893390443,0.351,0.45,1,1,2,286,1
1.18021173698,0.0625073775594,0.0390769311738,0.124289719434,0.302,0.45,2,0,-1,287,1
1.0187049897,0.0518398487174,0.0625000379378,0.245256558563,0.301,0.45,0,0,2,288,1
0.131445353717,1.26255903901,0.0697343446477,0.150360170971,0.333,0.45,2,1,-1,289,1
2.7762174983,0.0996638259626,0.046945546381,0.12042519032,0.358,0.45,0,0,2,290,1
0.101225926034,1.18039406769,0.0544698035617,0.116548741542,0.451,0.45,1,1,1,291,1
0.0938750604757,0.046875000069,0.0608105714949,1.07870277019,0.363,0.45,3,3,2,292,1
1.59272347047,0.0537629052553,0.0874465314073,0.0811493257408,0.382,0.45,0,0,2,293,1
0.0941240370102,0.0764442103992,0.0623580619133,1.10170823743,0.394,0.45,3,3,2,294,1
0.0999989257772,1.30003141909,0.0487845593202,0.165378738103,0.314,0.45,1,1,2,295,1
0.108565875672,0.0546875000396,1.26443824456,0.113014489702,0.307,0.45,2,2,2,296,1
0.10007016251,1.0157211068,0.0703885472674,0.10431518465,0.309,0.45,1,1,2,297,1
1.27961838616,0.0949501893391,0.0410985040388,0.0721088594948,0.314,0.45,0,0,2,298,1
0.124971207084,0.0620501588895,1.12652131297,0.15272854683,0.349,0.45,2,2,2,299,1
0.12125468422,0.115418338977,0.272644263535,1.14142591288,0.402,0.45,3,3,2,300,1
0.113118752111,0.0918321608006,1.28186002603,0.14009487745,0.435,0.45,2,2,2,301,1
1.47592044621,0.238652611214,0.125900444216,0.218941900224,0.428,0.45,0,0,2,302,1
0.111719571648,1.15099395755,0.0818590355916,0.166948765085,0.413,0.45,1,1,2,303,1
0.0788275482212,0.0546875000001,0.0487586643969,1.19013129522,0.442,0.45,3,3,2,304,1
1.10814885757,0.232363336621,0.123002654953,0.181559573753,0.415,0.45,0,0,2,305,1
0.0942683788,0.0997337911314,1.04034787041,0.271219009158,0.45,0.45,3,2,-1,306,1
0.382607274292,1.18632445148,0.0552784000203,0.288629710531,0.433,0.45,1,1,2,307,1
0.194481672525,0.0491330924523,1.02576248649,0.173452803929,0.448,0.45,2,2,2,308,1
0.390703575505,0.21695163474,0.121088083363,1.06927466939,0.484,0.45,3,3,1,309,1
0.178895321499,0.227289020328,1.23327912868,0.212323901763,0.475,0.45,2,2,1,310,1
0.494065603311,1.01112751214,0.0548882265271,0.24183821142,0.432,0.45,1,1,2,311,1
1.00436725932,0.403436158567,0.1976427727,0.20958073427,0.298,0.45,0,0,2,312,1
0.130765230929,0.0590741644188,1.0284362041,0.143742542738,0.372,0.45,2,2,2,313,1
1.3563733956,0.262518211886,0.0633106931257,0.162260310421,0.33,0.45,0,0,2,314,1
0.27682777472,0.101247112709,0.0686773361011,1.01060733574,0.48,0.45,3,3,1,315,1
1.14993292813,0.318408247471,0.227431230012,0.260127654454,0.328,0.45,1,0,-1,316,1
1.03387699602,0.0717030410439,0.116344511562,0.278782235125,0.38,0.45,0,0,2,317,1
0.179919770258,1.12710869054,0.116613528937,0.236809723207,0.405,0.45,1,1,2,318,1
0.180461955242,0.432291075501,0.064602053945,1.01105187041,0.452,0.45,3,3,1,319,1
1.23506381777,0.232554592333,0.034409740273,0.181230211158,0.353,0.45,0,0,2,320,1
0.143159363354,0.0564434277745,1.15450819763,0.24868419425,0.364,0.45,2,2,2,321,1
0.126016165994,1.06273469939,0.0390628197661,0.28976567382,0.327,0.45,1,1,2,322,1
0.233693004837,0.0554155406801,1.07069994873,0.312706328606,0.335,0.45,2,2,2,323,1
0.197664699044,0.180809459309,0.0719156513355,0.775407764008,0.7,0.45,3,-1,0,325,1
1.03936839179,0.325069399064,0.111020436067,0.183031957545,0.393,0.45,2,0,-1,325,1
1.01899851137,0.079286192855,0.047491361446,0.241374360529,0.346,0.45,0,0,2,326,1
0.135589783963,0.132335293097,0.0574305600599,1.00005511363,0.434,0.45,3,3,2,327,1
0.354564047581,1.09824264717,0.177907359198,0.14747944151,0.35,0.45,1,1,2,328,1
1.08510302776,0.0532864508507,0.254514401555,-0.00458525084725,0.429,0.45,0,0,2,329,1
1.05871641871,0.0942622209417,0.0793031201307,0.185605037205,0.361,0.45,1,0,-1,330,1
0.187282529778,0.133173403562,0.0878285314916,1.23615576136,0.353,0.45,3,3,2,331,1
2.56053903308,0.0482986485753,0.227623273201,0.202147677743,0.345,0.45,0,0,2,332,1
0.126871101129,0.0659155104348,1.36920527167,0.218843580687,0.325,0.45,2,2,2,333,1
0.121407108058,0.0412563250014,0.791352661722,1.1389015905,0.358,0.45,3,3,2,334,1
0.144438059785,1.04694102246,0.0474775196717,0.121967889277,0.297,0.45,2,1,-1,335,1
0.164652179455,1.36068395435,0.0202972881131,0.205634059992,0.334,0.45,1,1,2,336,1
0.159247755136,0.0551560054057,1.16433077454,0.275370275194,0.312,0.45,2,2,2,337,1
1.07861245854,0.0471219560457,0.0546875008294,0.16586500667,0.245,0.45,0,0,2,338,1
0.144344080745,1.09260531829,0.0465929567454,0.0569004369725,0.301,0.45,1,1,2,339,1
0.0902671791013,0.0390625000431,0.0397012679222,1.26410714789,0.357,0.45,3,3,2,340,1
2.60494330626,0.12432037294,0.13020482407,0.0468747022402,0.326,0.45,0,0,2,341,1
0.125728562985,0.0977416768948,0.337829437717,1.0548853661,0.367,0.45,3,3,2,342,1
0.230022115516,1.21406540179,0.0375919747577,0.138775971506,0.321,0.45,1,1,2,343,1
1.10085863051,0.0625000003069,0.0504958634341,0.110117199035,0.324,0.45,0,0,2,344,1
0.0815603536157,0.0781074493934,1.18118347006,0.0856652427082,0.342,0.45,2,2,2,345,1
0.0955333205483,1.14793992211,0.549149382181,0.141798994687,0.381,0.45,1,1,2,346,1
0.0959577649993,1.00570477074,0.0502232821032,0.0650439564387,0.379,0.45,2,1,-1,347,1
0.0930720164222,0.123247643817,0.0312500366588,1.11314940869,0.366,0.45,3,3,2,348,1
0.0815217447552,0.0893066950375,1.13563908099,0.0651560544626,0.296,0.45,2,2,2,349,1
0.0864137865568,1.0083624103,0.0390625021326,0.0730392024693,0.316,0.45,0,1,-1,350,1
0.0856810663314,0.037549538527,0.196963080707,1.19708414544,0.357,0.45,3,3,2,351,1
0.0855693961538,1.18360645933,0.0781480260496,0.148631474931,0.325,0.45,1,1,2,352,1
2.12962216708,0.0390625000024,0.0473113362538,0.0944895583813,0.363,0.45,0,0,2,353,1
1.23587054978,0.100233818139,0.40821008328,0.199402228803,0.318,0.45,1,0,-1,354,1
0.0902692836313,0.0468750358476,0.0432463175807,1.05571983199,0.348,0.45,3,3,2,355,1
2.85232786165,0.0796693352195,0.0242964779991,0.0570550212846,0.342,0.45,0,0,2,356,1
0.128768517798,1.03169202091,0.112378173433,0.209817388774,0.299,0.45,2,1,-1,357,1
0.139699707871,0.754548567621,0.0392929158144,1.13218023103,0.382,0.45,3,3,2,358,1
0.105716917738,0.10021625484,1.01131671053,0.0707288382104,0.346,0.45,2,2,2,359,1
0.104649651485,1.21501476241,0.0390634272233,0.097694908603,0.316,0.45,1,1,2,360,1
0.121261995552,0.0503502266141,1.04564515738,0.0722733027621,0.333,0.45,2,2,2,361,1
0.149774639386,1.1233479049,0.0708348021322,0.117861874561,0.328,0.45,1,1,2,362,1
0.0981196013842,0.0676657975966,0.949687072458,1.11502476717,0.344,0.45,3,3,2,363,1
2.26146771058,0.912465224728,0.0672602974994,-0.0603168263943,0.398,0.45,0,0,2,364,1
0.0707935073786,0.0357894452032,0.428080212814,1.25700673797,0.372,0.45,3,3,2,365,1
0.137355699718,1.04585428085,0.0279710836115,0.136416565001,0.288,0.45,1,1,2,366,1
1.23822284453,0.0468750015155,0.0806414344404,0.0705689732538,0.335,0.45,0,0,2,367,1
1.78795538193,0.0576100814989,0.0644475349005,0.0663237140232,0.395,0.45,1,0,-1,368,1
0.0601158727276,0.0715075736536,1.19133438286,0.119134052344,0.415,0.45,2,2,2,369,1
0.0654596855408,0.118899466034,0.0509087195851,1.02314178869,0.358,0.45,3,3,2,370,1
0.0697417207095,0.135962716193,1.02800084183,0.144026277315,0.389,0.45,2,2,2,371,1
2.28772224061,0.207143462231,0.0468752601473,0.128472484698,0.351,0.45,0,0,2,372,1
0.0880921767412,0.103431357851,1.07455950242,0.228621012379,0.348,0.45,2,2,2,373,1
0.137271741048,1.15552484846,0.0390931497439,0.141541929941,0.32,0.45,1,1,2,374,1
2.10504971631,0.0393987756621,0.0835626219445,0.197463639217,0.345,0.45,0,0,2,375,1
0.107505559427,0.0875215458447,0.141469695551,1.03995252469,0.324,0.45,3,3,2,376,1
0.129059085221,1.04330152967,0.0637487788823,0.0819081810425,0.27,0.45,1,1,2,377,1
0.0571098608341,0.0434237853866,0.175207133192,1.09914767672,0.386,0.45,3,3,2,378,1
1.42367660894,0.0992413829389,0.0512987176712,0.101085163361,0.339,0.45,0,0,2,379,1
0.0782829242517,0.0620137517198,1.13986601828,0.142186399556,0.305,0.45,2,2,2,380,1
0.0818856753403,0.0773254784053,0.0589881609215,1.12387214526,0.402,0.45,3,3,2,381,1
0.0900002793577,0.0942998079904,1.08410068621,0.160272427657,0.38,0.45,2,2,2,382,1
1.08399575878,0.0815624757904,0.0323490868144,0.185841117905,0.34,0.45,0,0,2,383,1
1.21120761124,0.0704855256017,0.133803920907,0.24012791441,0.346,0.45,1,0,-1,384,1
0.038869140484,0.0495987808587,1.05344347536,0.163465434652,0.34,0.45,2,2,2,385,1
0.0479782548457,1.1628042848,0.112095812065,0.124102620795,0.413,0.45,1,1,2,386,1
0.0508161218148,0.0383179481884,0.0793867691691,1.09116489563,0.39,0.45,3,3,2,387,1
1.46092263206,0.0713570114633,0.056107170304,0.0961654730484,0.324,0.45,0,0,2,388,1
0.0774746360096,0.0720133878121,0.807093817883,1.00583049224,0.364,0.45,3,3,2,389,1
0.139843903207,1.17286981212,0.0319727062121,0.131603881468,0.36,0.45,1,1,2,390,1
1.43033871101,0.0376137154047,0.0338558175367,0.191793521543,0.382,0.45,0,0,2,391,1
0.074172120058,0.0751742715028,1.07782508441,0.167484403314,0.388,0.45,1,2,-1,392,1
0.0589566340102,0.0238633226774,1.07080504874,0.133765212328,0.388,0.45,2,2,2,393,1
1.26204323906,0.156704725328,0.122964118076,0.130750379777,0.404,0.45,0,0,2,394,1
0.151661072281,0.124046879073,1.31127914447,0.139561223496,0.374,0.45,2,2,2,395,1
0.214518540703,0.318134575093,0.179228328173,1.00257388525,0.286,0.45,3,3,2,396,1
0.12782902502,0.290372259258,1.06107593467,0.189579314161,0.391,0.45,2,2,2,397,1
1.13018470264,0.920655582425,0.0391337720974,0.204438949926,0.374,0.45,0,0,2,398,1
0.0560904962515,0.0466628162579,0.209988824906,1.00655604766,0.439,0.45,3,3,2,399,1
0.0949118980193,1.06468582674,0.0334273549926,0.232301593222,0.298,0.45,1,1,2,400,1
2.0112923896,0.12821717909,0.0530957293303,0.17727779042,0.425,0.45,0,0,2,401,1
0.324877643962,1.73009276814,0.109956661578,0.229844427743,0.471,0.45,1,1,1,402,1
0.0422336535402,0.0401550214652,0.0764808105571,1.05734091216,0.428,0.45,3,3,2,403,1
1.32045213696,0.0610643655443,0.142408863631,0.149868886629,0.398,0.45,0,0,2,404,1
0.0853659172272,0.104289703508,1.05523088834,0.279199744179,0.303,0.45,2,2,2,405,1
0.145798795132,1.15894939417,0.0368257177784,0.184495437691,0.294,0.45,1,1,2,406,1
0.102692788083,0.650538489097,1.26272373841,0.144663481091,0.384,0.45,2,2,2,407,1
0.10268770824,0.0795266452649,0.19955823177,1.07693333715,0.324,0.45,3,3,2,408,1
0.0890474682997,0.102804596908,1.33492482988,0.183051365152,0.359,0.45,2,2,2,409,1
0.0910778160695,0.240225356662,0.0390627075267,1.12785816238,0.428,0.45,3,3,2,410,1
1.39413215318,0.0684787058364,0.0469408285742,0.143090595914,0.38,0.45,0,0,2,411,1
0.233155323604,1.22957534759,0.126855221914,0.290506432483,0.425,0.45,1,1,2,412,1
0.0773827850792,0.0390829294075,0.0525820533091,1.04329243353,0.369,0.45,3,3,2,413,1
0.0747551427451,1.11806380481,0.0402801010877,0.122083570432,0.406,0.45,1,1,2,414,1
2.18531602648,0.0565707957291,0.130621619754,0.156396411598,0.398,0.45,0,0,2,415,1
0.0720126072509,0.0933158163024,0.493304578832,1.14486131682,0.388,0.45,3,3,2,416,1
0.0854129279924,0.400901801145,1.3252084768,0.40540360872,0.429,0.45,2,2,2,417,1
1.10516307648,0.0938535670425,0.0390627904995,0.184947572642,0.414,0.45,0,0,2,418,1
0.0584674351013,0.0680160727076,1.31041986793,0.281577959352,0.343,0.45,2,2,2,419,1
0.0616760493657,1.02600307114,0.0348159632092,0.289728155973,0.316,0.45,1,1,2,420,1
0.0640942063504,0.0555883158495,1.19092872627,0.227630373745,0.314,0.45,2,2,2,421,1
1.10856654519,0.253470341716,0.0594108912836,0.170288151802,0.331,0.45,0,0,2,422,1
0.220698606947,1.13989859736,0.108755787423,0.299720899882,0.314,0.45,1,1,2,423,1
0.0762082874943,0.140535123682,0.227141654857,1.04162245361,0.358,0.45,3,3,2,424,1
1.13131338398,0.0804251387326,0.282767452804,0.162043928818,0.393,0.45,0,0,2,425,1
0.0664668822837,0.0875668000877,0.504111380622,1.06685164722,0.486,0.45,3,3,1,426,1
0.08995837756,1.29040968675,0.0397383495442,0.100298575248,0.391,0.45,1,1,2,427,1
0.0743383735275,0.0704733006203,1.14451787705,0.219481535958,0.356,0.45,2,2,2,428,1
0.531465966827,1.11620962217,0.0918057225091,0.306555505329,0.422,0.45,1,1,2,429,1
1.39968509236,0.114958188323,0.0578667538019,0.298287313832,0.412,0.45,0,0,2,430,1
0.0415086208998,0.0480932504306,1.26940089358,0.30239335863,0.381,0.45,2,2,2,431,1
0.104193432902,0.0556202825756,0.0534696761766,1.01004891986,0.43,0.45,3,3,2,432,1
0.105769950688,0.506731161252,1.10209750261,0.222302933513,0.44,0.45,2,2,2,433,1
0.108615856168,0.0632563604777,1.309552194,0.255553447414,0.459,0.45,2,2,1,434,2
1.28926586807,0.169417388491,0.0385675547907,0.0921341131674,0.367,0.45,0,0,2,435,2
0.808577023959,1.22387973325,0.244929225811,0.117409517707,0.375,0.45,1,1,2,436,2
0.100282836352,0.0419558429151,0.0525622336283,1.22489854555,0.322,0.45,3,3,2,437,2
0.098572838888,1.12021514881,0.0456463925753,0.109100374165,0.289,0.45,1,1,2,438,2
0.101277434616,1.07705566432,0.0872841459157,0.195912171633,0.353,0.45,0,1,-1,439,2
0.11071024012,0.0489524131724,0.0698167401577,1.06246187951,0.314,0.45,3,3,2,440,2
0.151520912609,0.105229983221,1.13551673258,0.0850973225952,0.275,0.45,2,2,2,441,2
0.131559060315,1.02352643659,0.0546879634502,0.233699389827,0.242,0.45,1,1,2,442,2
1.0228159939,0.286102630732,0.0901198418104,0.355040460381,0.231,0.45,2,0,-1,443,2
0.117325242591,0.0861509719079,0.0485807065388,1.40579188441,0.394,0.45,3,3,2,444,2
1.54487049375,0.114508715017,0.0951385064957,0.0479282718835,0.376,0.45,0,0,2,445,2
0.0510073653271,0.0970745167893,1.36092162427,0.20141005843,0.323,0.45,2,2,2,446,2
0.061347927224,1.1451155172,0.0555291665401,0.225141856543,0.306,0.45,0,1,-1,447,2
0.362517896215,1.30069698105,0.0596435524363,0.220611637105,0.427,0.45,1,1,2,448,2
0.110977589021,0.0703176370032,0.0625412944661,1.03009867868,0.35,0.45,3,3,2,449,2
1.05682338058,0.0956531192041,0.147133471328,0.0944721401455,0.342,0.45,0,0,2,450,2
0.0534191997263,0.104544107756,1.07596640797,0.222853677509,0.322,0.45,3,2,-1,451,2
0.0602758362297,1.01405750822,0.046929980635,0.0965399309657,0.335,0.45,1,1,2,452,2
1.45048965515,0.0846808016377,0.190703521319,0.152559666811,0.351,0.45,0,0,2,453,2
0.0894972894813,0.0911619822544,1.1245558805,0.219813338048,0.316,0.45,2,2,2,454,2
0.107198762351,1.05339009197,0.0312952290584,0.181377252552,0.258,0.45,1,1,2,455,2
0.0740801595755,0.104518324116,0.0683381287501,1.18862330187,0.355,0.45,2,3,-1,456,2
0.0809789299344,0.0538407359062,0.121433827063,1.00384055621,0.365,0.45,3,3,2,457,2
0.0706383128767,0.0666737453901,1.02394051711,0.15518027491,0.355,0.45,2,2,2,458,2
0.157746807987,1.00971791572,0.0703717349535,0.274606757063,0.353,0.45,1,1,2,459,2
1.42101112085,0.232237206797,0.0729150198521,0.336578555021,0.265,0.45,0,0,2,460,2
0.0474371068148,0.0802648230316,1.01874077141,0.26364165471,0.313,0.45,3,2,-1,461,2
0.240179047794,0.373688655547,1.17876707814,0.262554831421,0.359,0.45,1,2,-1,462,2
1.0174021438,0.493576247749,0.213740033093,0.309796246654,0.131,0.45,3,0,-1,463,2
1.17594684031,0.26920717669,0.154281315272,0.294101802016,0.408,0.45,0,0,2,464,2
0.125812453589,0.168797326966,1.14771010887,0.383376805587,0.326,0.45,2,2,2,465,2
0.207977589858,0.2387510613,0.0892011274172,1.02350713438,0.396,0.45,3,3,2,466,2
0.104953752117,0.218281142806,1.06013165879,0.233150807015,0.395,0.45,2,2,2,467,2
1.3123270206,0.185934246393,0.0390721809168,0.207753686869,0.341,0.45,0,0,2,468,2
1.06836596209,0.0633754742374,0.614814934024,0.31665667992,0.365,0.45,1,0,-1,469,2
0.0684431887915,0.0641379283249,1.14644090805,0.283244478556,0.335,0.45,2,2,2,470,2
1.20489169214,0.0671462055106,0.0903905212233,0.176100169461,0.343,0.45,1,0,-1,471,2
1.02182245077,0.116176883742,0.127610713909,0.230363714137,0.379,0.45,0,0,2,472,2
0.101298940947,0.0877680328701,0.0827604703352,1.01494009114,0.465,0.45,3,3,1,473,2
0.137883316079,1.19814157087,0.0494570428756,0.168509207513,0.43,0.45,1,1,2,474,2
0.306312510686,0.238164054173,0.154970833066,1.01445601836,0.425,0.45,3,3,2,475,2
1.14315742786,0.127065648143,0.160013689765,0.222618032554,0.428,0.45,0,0,2,476,2
1.06390420985,0.0956072325835,0.268749716294,0.203853815885,0.411,0.45,1,0,-1,477,2
0.0571244404667,0.0588489157149,1.10795736175,0.147195143075,0.438,0.45,2,2,2,478,2
0.0579522402934,0.0497323568584,0.054748519799,0.283922029154,0.7,0.45,3,-1,0,480,2
0.126393400711,0.174542698339,1.1369439224,0.212522992215,0.532,0.45,2,2,1,480,2
1.01745559512,0.179476656335,0.0873686705118,0.309771451724,0.427,0.45,0,0,2,481,2
0.10255797467,0.128543594045,1.18074032902,0.302086664848,0.422,0.45,2,2,2,482,2
0.186057031029,1.04253676121,0.063532746488,0.383522020652,0.412,0.45,0,1,-1,483,2
0.112342696671,0.0666068973106,0.0739241786307,1.0009230466,0.575,0.45,3,3,1,484,2
0.181399174293,1.08974642674,0.209177722016,0.194058514872,0.417,0.45,1,1,2,485,2
1.27547691211,0.0994827516387,0.0607960494939,0.21657398269,0.394,0.45,0,0,2,486,2
0.274414336761,1.17141757523,0.0780940204423,0.110675637695,0.423,0.45,1,1,2,487,2
0.0885793919731,0.196849821722,0.0881178105469,1.18007995462,0.409,0.45,3,3,2,488,2
1.02340295628,0.239704268201,0.123844183066,0.0784275976683,0.471,0.45,0,0,1,489,2
0.137287709992,0.14001959383,1.14497706366,0.12961664391,0.431,0.45,2,2,2,490,2
0.125151399621,0.182071222135,0.073640789549,0.222393210108,0.7,0.45,3,-1,0,492,2
0.117106666279,0.111003224922,1.14238876588,0.15503831829,0.429,0.45,2,2,2,492,2
0.114304584369,1.07394206602,0.0440953330975,0.172261947108,0.387,0.45,1,1,2,493,2
0.212898457059,0.107046781642,1.0928800713,0.169624135053,0.348,0.45,2,2,2,494,2
0.117651188676,0.245429532421,0.0468762654882,1.13913273224,0.387,0.45,3,3,2,495,2
1.10774106704,0.151165300499,0.144035509243,0.159137130641,0.34,0.45,0,0,2,496,2
0.697829865979,1.33194032433,0.0655997548273,0.140650661979,0.437,0.45,1,1,2,497,2
0.075940777915,0.129167945035,0.1317927305,0.149973381669,0.7,0.45,3,-1,0,499,2
0.0746420295081,1.13075301778,0.107462674799,0.124747656693,0.391,0.45,1,1,2,499,2
1.26535563522,0.143680102318,0.130965920353,0.116933834791,0.375,0.45,0,0,2,500,2
0.0802565965493,0.0996225041911,0.0822083775943,1.02386137878,0.377,0.45,3,3,2,501,2
0.0772153129715,0.190146238073,1.08591121517,0.133760287026,0.358,0.45,2,2,2,502,2
1.33157786475,0.141282762195,0.1653804288,0.317791729876,0.424,0.45,0,0,2,503,2
0.0760384860353,0.0959931001885,1.09896697724,0.139922829662,0.46,0.45,2,2,1,504,2
0.599799266235,1.18916760924,0.077496019901,0.125796635829,0.448,0.45,1,1,2,505,2
0.0912014641695,0.142681686614,1.16361171108,0.104924636988,0.377,0.45,2,2,2,506,2
0.31089919254,1.01603118016,0.0795879060593,0.0641884469967,0.412,0.45,1,1,2,507,2
0.126077647513,0.169610730233,0.0746590485231,1.0363584373,0.407,0.45,3,3,2,508,2
1.00661357656,0.257827046294,0.120214815941,0.148413903371,0.305,0.45,0,0,2,509,2
0.112929519579,1.1326904287,0.0567031565055,0.140351305882,0.352,0.45,1,1,2,510,2
1.3112596829,0.228381934446,0.0930670734743,0.27483947409,0.335,0.45,0,0,2,511,2
0.106904044934,0.116930264316,0.0967639454389,1.05323743282,0.409,0.45,3,3,2,512,2
0.0836375610653,0.146923687751,1.00337927633,0.222136327561,0.427,0.45,2,2,2,513,2
0.0908581929351,0.0872704431512,0.087741977748,1.00162612316,0.439,0.45,3,3,2,514,2
0.0820976613361,1.24526269625,0.048434095106,0.166349634313,0.423,0.45,1,1,2,515,2
0.108404895101,0.0790860123706,1.00688812882,0.310260427223,0.365,0.45,2,2,2,516,2
2.01396016726,0.229559457345,0.0578629741692,0.207373624815,0.372,0.45,0,0,2,517,2
0.0905189242186,0.103820782688,1.04424634857,0.171688332801,0.431,0.45,2,2,2,518,2
0.0834891881286,1.03555391931,0.0703244469195,0.205199554603,0.333,0.45,1,1,2,519,2
0.0906579969236,0.0930331818,0.0859412401202,1.02097065252,0.332,0.45,3,3,2,520,2
1.2866138541,0.107943472549,0.10975726409,0.112679926953,0.335,0.45,0,0,2,521,2
0.0601827864416,0.063708551333,0.0590006290101,1.15463405086,0.431,0.45,3,3,2,522,2
0.0785535460387,1.21991532107,0.0485392249935,0.148925209823,0.34,0.45,1,1,2,523,2
1.4114832354,0.0759164480901,0.0725577622131,0.242390130663,0.367,0.45,0,0,2,524,2
0.147633031686,1.12074342741,0.0799119319206,0.256805818039,0.389,0.45,1,1,2,525,2
0.0582006641596,0.076158023122,1.09881255368,0.155891782287,0.371,0.45,2,2,2,526,2
0.059729517917,0.0549530381679,0.0468834416787,1.07945789486,0.309,0.45,3,3,2,527,2
0.0583584527191,0.062836276119,1.0106863232,0.0939637321748,0.35,0.45,2,2,2,528,2
1.26332971369,0.399143861916,0.0878664374861,0.181980622992,0.323,0.45,0,0,2,529,2
0.0969740516569,0.103970456112,1.24884471599,0.195372041031,0.294,0.45,2,2,2,530,2
0.0612702576538,0.0910411848839,0.0390664097682,1.00696722854,0.54,0.45,3,3,1,531,2
0.0588828891935,1.37351893676,0.0661321565747,0.0950387904908,0.369,0.45,1,1,2,532,2
1.57765161384,0.617424681514,0.086885472046,-0.00351429504042,0.392,0.45,0,0,2,533,2
0.0487516810826,1.12279899766,0.122922126223,0.119862785601,0.378,0.45,1,1,2,534,2
0.0470034053343,0.0598031885981,0.099063516015,1.09972841297,0.359,0.45,3,3,2,535,2
1.16859825059,0.135649095809,0.09642782826,0.0917759174098,0.436,0.45,0,0,2,536,2
0.0842692758877,0.102194973347,1.02865338329,0.191180048044,0.391,0.45,2,2,2,537,2
1.19500624705,0.181630731577,0.046880541096,0.149021771597,0.378,0.45,0,0,2,538,2
0.056717890776,0.130047723735,0.0419238953653,0.136917898874,0.7,0.45,3,-1,0,540,2
0.0630497936324,0.091186691217,1.00410491609,0.141807655089,0.373,0.45,2,2,2,540,2
0.32150653878,1.18186090969,0.0468843878633,0.106984425338,0.327,0.45,1,1,2,541,2
0.105963037811,0.0868712303207,1.2336069812,0.112474697597,0.315,0.45,2,2,2,542,2
0.288788457994,0.264840142067,0.259669120781,1.12982231876,0.408,0.45,3,3,2,543,2
1.60406142964,0.549105509784,0.185769123697,0.126603323888,0.461,0.45,0,0,1,544,2
0.0466047572558,1.06770782364,0.12317942137,0.239229511788,0.406,0.45,1,1,2,545,2
0.0350096656028,0.0746083956435,0.149347993377,1.03353925059,0.381,0.45,3,3,2,546,2
1.25359647265,0.0920185870039,0.155276113779,0.183951866146,0.366,0.45,1,0,-1,547,2
2.87135603128,0.061352271133,0.095561744396,0.106228538283,0.476,0.45,0,0,1,548,2
0.0575367360592,0.0570756537921,0.086497196074,1.04186944425,0.432,0.45,3,3,2,549,2
0.13708567969,0.129817462717,1.00426375614,0.139451223701,0.352,0.45,2,2,2,550,2
1.2123497317,0.142019186865,0.097557708959,0.223836618972,0.358,0.45,0,0,2,551,2
0.0526040439055,0.0843545415206,1.17568819693,0.309553613071,0.372,0.45,2,2,2,552,2
0.10849402015,1.3147837236,0.0862005996277,0.255378759525,0.326,0.45,1,1,2,553,2
0.270825920636,0.434849316641,0.271414901129,1.03332224017,0.32,0.45,2,3,-1,554,2
1.25326800799,0.134846986206,0.231186343594,0.0923356024759,0.351,0.45,0,0,2,555,2
1.0685670071,0.141510530813,0.30512736097,0.104200773094,0.358,0.45,1,0,-1,556,2
0.0648511772197,0.212139004578,0.178502751319,1.07907755757,0.404,0.45,3,3,2,557,2
0.0758705038821,1.00554099417,0.635883813256,0.0649457354896,0.392,0.45,1,1,2,558,2
1.47034809836,0.353924537313,0.18589709624,0.189915367442,0.403,0.45,0,0,2,559,2
0.0895150606642,0.205686368705,0.155752952835,1.06992565549,0.402,0.45,3,3,2,560,2
1.04038165872,0.631917191648,0.0579674554233,0.134096074958,0.393,0.45,0,0,2,561,2
0.0978496621743,0.0896585948914,1.26094202315,0.239337044022,0.384,0.45,2,2,2,562,2
0.129621586519,0.251181316211,0.280342648663,1.02939352111,0.496,0.45,3,3,1,563,2
0.113125507769,0.143655833721,1.03108679038,0.153873548337,0.498,0.45,2,2,1,564,2
0.15787003954,1.17914799148,0.0827020084121,0.249064811224,0.396,0.45,1,1,2,565,2
0.230705719898,1.13747586195,0.0583402759183,0.292271277661,0.339,0.45,2,1,-1,566,2
1.13228748859,0.0847434047936,0.211652646415,0.325739426663,0.309,0.45,1,0,-1,567,2
0.0800413174522,0.113742948551,0.173067823071,1.03185219776,0.442,0.45,3,3,2,568,2
1.00101057448,0.281130419072,0.240277571898,0.179137036538,0.313,0.45,0,0,2,569,2
0.119536200135,0.118202244724,0.191126210129,1.06063398966,0.342,0.45,3,3,2,570,2
0.104230990624,1.14216840583,0.23354818574,0.291735527072,0.292,0.45,1,1,2,571,2
1.32791856887,0.0604653746353,0.120592155111,0.337133837222,0.392,0.45,0,0,2,572,2
0.0980022860792,0.0880042216437,1.2871938486,0.403867418976,0.333,0.45,2,2,2,573,2
0.136783158353,0.146858264787,0.0397463350257,1.01566381908,0.371,0.45,3,3,2,574,2
0.103367691306,0.105482414675,1.07989949457,0.166807613958,0.426,0.45,2,2,2,575,2
1.37765793511,0.130435111874,0.0673034175542,0.223205722839,0.368,0.45,0,0,2,576,2
0.0928798606218,1.33469437913,0.0564620795404,0.218472015704,0.303,0.45,1,1,2,577,2
0.0948508641528,0.0865389756287,1.10566948044,0.342194245627,0.276,0.45,2,2,2,578,2
0.179247061781,1.18165340609,0.108310299599,0.133458824455,0.339,0.45,1,1,2,579,2
1.3312035785,0.320272904662,0.115365807131,0.145831504146,0.365,0.45,0,0,2,580,2
0.0580621875803,0.0762075100868,1.14401690257,0.133226500747,0.323,0.45,3,2,-1,581,2
0.171482974219,1.41464003271,0.059206894328,0.111099946537,0.359,0.45,1,1,2,582,2
0.0551538730391,0.0601439551697,0.129281353747,1.22106367749,0.366,0.45,3,3,2,583,2
1.20058106031,0.0534808950134,0.150129282182,0.132964321851,0.345,0.45,0,0,2,584,2
0.0536779865806,0.0534067946048,1.01018692865,0.272267823549,0.263,0.45,2,2,2,585,2
0.0632919893769,0.0583495578554,0.0421419626561,1.19661934689,0.386,0.45,3,3,2,586,2
0.0655721723879,0.469013260645,1.33047770882,0.283473067191,0.395,0.45,2,2,2,587,2
1.19634541734,0.102606382795,0.0391618781329,0.184669126084,0.349,0.45,0,0,2,588,2
1.0397554719,0.0573579612178,0.0792224494892,0.27821991504,0.399,0.45,1,0,-1,589,2
0.0652862672994,0.0602930505308,1.3660690797,0.112445339007,0.355,0.45,2,2,2,590,2
0.0722760646829,0.047593023177,0.0725150572068,1.12994985066,0.317,0.45,3,3,2,591,2
1.33017358552,0.158183901979,0.19080021164,0.273862063003,0.374,0.45,0,0,2,592,2
0.104973705128,1.21047328761,0.113635670642,0.208969358849,0.367,0.45,1,1,2,593,2
0.108173046949,0.177128631165,0.0854887174198,1.18981593461,0.308,0.45,3,3,2,594,2
0.107901292494,1.03246084136,0.10382965273,0.144678528534,0.362,0.45,1,1,2,595,2
1.02534918494,0.781956748589,0.051923020598,0.0431659869681,0.4,0.45,0,0,2,596,2
0.0414208022132,0.139795582821,0.120376213484,1.07619411352,0.332,0.45,3,3,2,597,2
0.0390058480465,0.104944573641,1.07733517807,0.138205534008,0.349,0.45,2,2,2,598,2
0.0514850220159,1.11668981625,0.0313495844995,0.223024678704,0.341,0.45,0,1,-1,599,2
0.0736331413712,0.10116257674,1.15852299543,0.383353109214,0.364,0.45,2,2,2,600,2
0.108489054521,1.14019591348,0.0547129868056,0.323778933292,0.339,0.45,1,1,2,601,2
0.075574774906,0.157555856038,1.11558939769,0.172053287821,0.362,0.45,2,2,2,602,2
1.4161735101,0.251387671029,0.194444683541,0.33266863979,0.374,0.45,0,0,2,603,2
0.117238822352,1.05132877683,0.124808588488,0.056789450837,0.386,0.45,1,1,2,604,2
0.0966468949801,0.276555641475,0.147537357121,1.02962726217,0.395,0.45,3,3,2,605,2
1.27810182955,0.120249294533,0.117064946065,0.173957368667,0.362,0.45,0,0,2,606,2
0.110477343473,0.0684647604139,0.465774214938,1.22898405553,0.4,0.45,3,3,2,607,2
0.100634438091,1.14620868984,0.0329896087388,0.152070839901,0.364,0.45,1,1,2,608,2
0.0974490242469,0.0996634469999,1.09107875192,0.281516033043,0.34,0.45,2,2,2,609,2
1.27687170295,0.170534464473,0.487227314723,0.169548442624,0.374,0.45,1,0,-1,610,2
1.40160507399,0.180128473796,0.042823749927,0.113541058531,0.398,0.45,0,0,2,611,2
0.156436351466,0.13782458693,1.11907668634,0.129807477057,0.379,0.45,2,2,2,612,2
0.145543693058,0.209221627018,0.161372566008,1.02046568288,0.314,0.45,3,3,2,613,2
0.101217388077,0.179860477056,1.03212348128,0.282277679047,0.475,0.45,2,2,1,614,2
1.02518447731,0.13554370599,0.0313281319664,0.302023870166,0.394,0.45,0,0,2,615,2
0.128154988739,1.28637263836,0.252617498411,0.332257233489,0.385,0.45,1,1,2,616,2
0.0994315192025,0.0421522799819,0.149518531546,1.13896984872,0.357,0.45,3,3,2,617,2
0.102202336009,1.11672749964,0.419812847431,0.0829596830087,0.316,0.45,1,1,2,618,2
1.47126186256,0.0412665069762,0.118469797872,0.0934186413271,0.335,0.45,0,0,2,619,2
0.104777683438,0.0652649521843,1.3387666263,0.151576520348,0.311,0.45,3,2,-1,620,2
0.117774398215,1.18017538206,0.061844971113,0.0960806374194,0.263,0.45,2,1,-1,621,2
0.106403122936,1.2327763946,0.0468951325565,0.207585783547,0.321,0.45,3,1,-1,622,2
0.210521296528,1.50559845578,0.0737526322287,0.0769364810099,0.405,0.45,0,1,-1,623,2
0.0844329255173,0.246991082077,1.25484083873,0.346519887292,0.381,0.45,2,2,2,624,2
0.135956469534,1.37774843182,0.0531349947674,0.327025725548,0.325,0.45,1,1,2,625,2
0.0692258395637,0.0265416726088,1.13525083198,0.306294842064,0.245,0.45,2,2,2,626,2
1.42592814627,0.229971662443,0.136398374864,0.137144805001,0.276,0.45,0,0,2,627,2
0.120170930979,0.0780531547585,0.755761368868,1.06564722534,0.35,0.45,3,3,2,628,2
0.138265112617,0.509808815234,1.03511105014,0.237353920142,0.364,0.45,1,2,-1,629,2
0.0857244354937,0.0162977166988,0.0483939846026,1.35396504858,0.404,0.45,3,3,2,630,2
1.34579362162,0.0770530821105,0.149566542356,0.176111420715,0.359,0.45,0,0,2,631,2
0.318297591003,1.01101289293,0.0988759491089,0.234519143392,0.456,0.45,1,1,1,632,2
0.0513406455809,0.0301494174692,1.2181862551,0.419454366077,0.374,0.45,2,2,2,633,2
0.0769403415186,1.24346154057,0.066189686096,0.0892247455583,0.372,0.45,1,1,2,634,2
0.0601977595286,1.06322806359,0.0794129572185,0.0890473891505,0.343,0.45,0,1,-1,635,2
0.102654488489,0.045678776785,1.10535218813,0.110924085436,0.34,0.45,2,2,2,636,2
0.249003229355,0.0845152187121,0.10324041411,1.10697198984,0.33,0.45,3,3,2,637,2
0.103904140981,0.0689674387464,1.22609887219,0.117416991777,0.326,0.45,2,2,2,638,2
1.13067010512,0.166541019964,0.039082248367,0.273392902425,0.38,0.45,0,0,2,639,2
0.0501550654097,0.0680460390691,0.152177421936,1.105397396,0.397,0.45,3,3,2,640,2
0.167743504559,1.1227353235,0.0717614578493,0.173549157665,0.337,0.45,1,1,2,641,2
1.13380165289,0.0262726043539,0.0340943374968,0.257507891716,0.332,0.45,0,0,2,642,2
1.05379874411,0.0366319620601,0.0369863587336,0.184948233359,0.443,0.45,1,0,-1,643,2
0.0403297145558,0.0410378528864,0.0598507155242,1.36177150503,0.436,0.45,3,3,2,644,2
0.0379480713377,0.0885107351014,1.08234536202,0.151527880285,0.394,0.45,2,2,2,645,2
0.0427621010502,0.034407321839,0.0391059658346,1.20934685067,0.417,0.45,3,3,2,646,2
1.02293754127,0.0465047930194,0.0375904261291,0.0957377881381,0.383,0.45,0,0,2,647,2
0.0725832362229,0.0259470721567,1.02612335507,0.161355139412,0.332,0.45,2,2,2,648,2
0.056172264596,1.23476070356,0.0810613304699,0.38001688368,0.253,0.45,1,1,2,649,2
0.0659525378076,1.09180918547,0.0458002492915,0.179577713202,0.366,0.45,2,1,-1,650,2
0.543901401761,1.27739167358,0.245621191691,0.327924573275,0.519,0.45,1,1,1,651,3
1.06008093685,0.0126939111235,0.0715568445312,0.360304436978,0.394,0.45,0,0,2,652,3
0.111677832209,0.0174232003509,0.159992699746,1.07708078889,0.338,0.45,3,3,2,653,3
0.217484202888,1.24704685767,0.0424140353346,0.324256743308,0.253,0.45,2,1,-1,654,3
0.191187542342,1.05639484861,0.0450539014019,0.340291756104,0.214,0.45,0,1,-1,655,3
0.156091849509,0.0174797498915,1.18788246098,0.364626591,0.232,0.45,2,2,2,656,3
0.103495064674,0.0202802135604,0.0507728214549,1.05620619368,0.323,0.45,3,3,2,657,3
1.49137853184,0.0745892432894,0.16430084016,0.234325897865,0.353,0.45,0,0,2,658,3
0.0687251655747,0.0232996836114,1.08589145933,0.296299193765,0.286,0.45,1,2,-1,659,3
0.0670801495537,0.0156320418065,1.15257864587,0.278723725108,0.309,0.45,2,2,2,660,3
0.0669081784294,1.3809069809,0.0860615159811,0.168990351021,0.288,0.45,1,1,2,661,3
0.0568325347275,0.0325717093772,0.0955960822981,1.00906893117,0.396,0.45,3,3,2,662,3
0.0527146624423,1.08050651779,0.0429504697625,0.131646456654,0.348,0.45,1,1,2,663,3
2.77005455654,0.0676656012776,0.111828583721,0.277842945568,0.362,0.45,0,0,2,664,3
0.0921997834492,0.0394241771942,0.164335551411,1.12957337888,0.388,0.45,3,3,2,665,3
0.113739699857,0.141455839423,1.08226616781,0.404540595377,0.409,0.45,2,2,2,666,3
0.0849215672095,0.0586501970425,0.0156387026262,1.10472906559,0.396,0.45,3,3,2,667,3
1.09487129368,0.187438670061,0.150859326335,0.287606901125,0.324,0.45,0,0,2,668,3
0.0735023277937,0.0319833714253,1.12226382881,0.358450477254,0.302,0.45,2,2,2,669,3
1.56444959778,0.090612048819,0.0156846710369,0.266613609379,0.37,0.45,0,0,2,670,3
1.08921311124,0.068612535446,0.247886776081,0.308244587056,0.385,0.45,1,0,-1,671,3
0.072572153153,0.0367485405537,0.0297199260106,1.2075268908,0.407,0.45,3,3,2,672,3
0.0760184042554,1.02033912047,0.0528841926836,0.128447345396,0.323,0.45,1,1,2,673,3
0.0797270621891,0.0270298995677,1.22848019457,0.220664564587,0.292,0.45,2,2,2,674,3
0.188125188007,1.09115904435,0.0646155191723,0.202731878868,0.428,0.45,1,1,2,675,3
0.0807805668348,1.01245709426,0.404771550182,0.133639284605,0.448,0.45,2,1,-1,676,3
1.04033997077,0.168719904683,0.0985240815751,0.0923913723177,0.363,0.45,0,0,2,677,3
0.0817130999648,0.0271624081775,0.059661562607,1.07939620229,0.366,0.45,3,3,2,678,3
1.07198502812,0.074847247025,0.0529033618111,0.118230424246,0.347,0.45,0,0,2,679,3
0.0855759133022,0.072724117906,1.11733383802,0.310475970636,0.29,0.45,2,2,2,680,3
0.0706474207559,0.0187806259213,0.0309779939229,1.06771586059,0.439,0.45,3,3,2,681,3
0.0723060227995,1.27385607615,0.0892414158573,0.215517932263,0.37,0.45,1,1,2,682,3
0.0740949642882,0.0657086761561,0.0733256852478,1.00688313124,0.391,0.45,3,3,2,683,3
0.0716228523425,0.0408439949568,1.33650253943,0.199149507051,0.333,0.45,2,2,2,684,3
0.0766457020367,1.14048603328,0.0469403599546,0.229160567528,0.307,0.45,1,1,2,685,3
1.52683047394,0.0814204646915,0.0698182807258,0.295891566238,0.331,0.45,0,0,2,686,3
0.0688300700632,1.1958168986,0.0455817181164,0.241388608737,0.42,0.45,1,1,2,687,3
0.0745236583386,0.0310427158126,1.24111395188,0.161066614712,0.41,0.45,2,2,2,688,3
1.4330842633,0.147171878361,0.152316732966,0.0841447727712,0.401,0.45,0,0,2,689,3
0.100906151791,0.0481801159974,0.0714565830904,1.08970404289,0.397,0.45,3,3,2,690,3
0.06733188275,0.0356639801476,1.04776791247,0.203717195638,0.334,0.45,2,2,2,691,3
0.06959665,0.0602602428797,0.0242098738433,0.652984390483,0.7,0.45,3,-1,0,693,3
1.40595590052,0.0522152003339,0.0293933659351,0.20618300491,0.424,0.45,0,0,2,693,3
0.0597980973734,0.0114257616243,1.01167701452,0.220730478896,0.349,0.45,2,2,2,694,3
0.0725436618168,1.17656377335,0.0398224798992,0.199892361093,0.367,0.45,1,1,2,695,3
0.0610552074219,0.0312585744281,0.0524143111533,0.272293881572,0.7,0.45,3,-1,0,697,3
0.0663340247857,1.05877545689,0.046000134599,0.213379383344,0.399,0.45,1,1,2,697,3
2.28565543249,0.0469475354868,0.165078137419,0.198812193734,0.443,0.45,0,0,2,698,3
0.160938317577,1.27136724701,0.146309899069,0.235030510713,0.387,0.45,1,1,2,699,3
1.50825951856,0.0582347603145,0.230973543642,0.210380804185,0.424,0.45,0,0,2,700,3
0.0884049548673,0.107951794772,1.11703554765,0.182212282994,0.403,0.45,2,2,2,701,3
0.0760369827126,0.0747325961104,0.245950743875,1.09033455167,0.399,0.45,3,3,2,702,3
0.0671375605785,0.0408159625691,0.346530260814,0.231822376547,0.7,0.45,2,-1,0,704,3
0.0635511341638,0.0281285716033,1.12649509169,0.262782298452,0.168,0.45,0,2,-1,704,3
0.353448941932,1.12929937622,0.236180606946,0.519199288862,0.318,0.45,3,1,-1,705,3
1.02488931998,0.359385663963,0.250119048364,0.316909633861,0.685,0.45,0,0,1,706,3
0.101116080157,1.14287549898,0.134120209808,0.366148725865,0.534,0.45,1,1,1,707,3
0.0667188531421,0.0312507079534,1.2963081598,0.407803269737,0.338,0.45,2,2,2,708,3
1.00740046845,0.23204840023,0.322588984702,0.291043676879,0.35,0.45,1,0,-1,709,3
0.0601735633317,0.0764613263079,0.11266570371,1.05501456539,0.354,0.45,3,3,2,710,3
0.437499170993,1.13968314367,0.484212833076,0.23511375055,0.377,0.45,1,1,2,711,3
0.050375361706,0.0441129458017,0.0195012175801,1.16857573706,0.374,0.45,3,3,2,712,3
0.0462440918943,0.130092452978,1.39138635551,0.225369303296,0.308,0.45,2,2,2,713,3
1.22164192684,0.353214628578,0.149555447899,0.237720799671,0.258,0.45,0,0,2,714,3
0.0955921097931,0.0623056360122,0.0836199715391,1.12769309219,0.408,0.45,3,3,2,715,3
0.0735298198982,1.23389361594,0.107936936711,0.349629802166,0.284,0.45,0,1,-1,716,3
0.160445399011,0.138110120571,1.18032716396,0.316376680988,0.302,0.45,2,2,2,717,3
1.07571089024,0.444045248961,0.134865341615,0.289383464313,0.392,0.45,1,0,-1,718,3
1.17153606639,0.0674766135326,0.0783548065453,0.281807182207,0.379,0.45,0,0,2,719,3
0.102791766336,1.26266657214,0.0893586589985,0.230057158978,0.388,0.45,1,1,2,720,3
0.156503160857,0.0878678159483,1.09044477993,0.291859725389,0.338,0.45,2,2,2,721,3
0.186139127954,0.0982831942645,0.153009143766,1.05085700799,0.408,0.45,3,3,2,722,3
0.164790581127,1.02811022536,0.153490794546,0.305421664601,0.314,0.45,1,1,2,723,3
1.68755209927,0.085469892973,0.107105166793,0.334543521711,0.333,0.45,0,0,2,724,3
0.06631910181,0.0686860666249,0.104693267841,1.06188043453,0.4,0.45,3,3,2,725,3
0.0981660507136,0.11967692189,1.27306998897,0.485552019678,0.385,0.45,2,2,2,726,3
1.18762569889,0.135106111397,0.0660487487762,0.40024675063,0.362,0.45,0,0,2,727,3
0.100068402873,0.0565457448337,1.26605870034,0.328547570945,0.341,0.45,2,2,2,728,3
0.118340726615,0.0885771251427,0.101800470848,1.12210770976,0.416,0.45,3,3,2,729,3
0.213194966778,1.10499690362,0.121147994139,0.205036081766,0.299,0.45,1,1,2,730,3
0.147121795789,0.074197730418,1.19383772602,0.30042681364,0.314,0.45,2,2,2,731,3
1.22730568258,0.0401309130881,0.081437012,0.316976821826,0.292,0.45,1,0,-1,732,3
0.134818532762,0.109123942198,1.1966505085,0.256345412955,0.349,0.45,3,2,-1,733,3
1.26377493731,0.145644821975,0.070522739881,0.324084700143,0.332,0.45,0,0,2,734,3
0.0944411311643,1.31307182479,0.242422556048,0.284930612043,0.353,0.45,1,1,2,735,3
0.10397160197,0.402403152939,0.101942681751,1.09289804953,0.39,0.45,3,3,2,736,3
0.0754899083575,0.14701784836,1.07096449233,0.292296229059,0.316,0.45,2,2,2,737,3
1.27134851992,0.09610836171,0.0261982734656,0.201396897426,0.346,0.45,0,0,2,738,3
0.0781756312434,0.0368843251785,0.0234742819865,1.11428741674,0.397,0.45,3,3,2,739,3
1.01372072817,0.738483364805,0.0264402833686,0.187319651331,0.416,0.45,0,0,2,740,3
0.0409817217004,0.0626695868812,1.27324071011,0.335739119788,0.38,0.45,2,2,2,741,3
0.149330105355,1.23899116194,0.0469508779562,0.279677138083,0.343,0.45,1,1,2,742,3
0.0471895194014,0.0206103338593,1.05232255946,0.242651215381,0.344,0.45,2,2,2,743,3
0.0485839215355,0.0188617659671,0.0490999795142,1.04035738755,0.392,0.45,3,3,2,744,3
0.0572630983205,1.10439503807,0.0177811036989,0.244517745608,0.326,0.45,1,1,2,745,3
1.00212997846,0.0681403135057,0.0364357340867,0.240114194371,0.346,0.45,0,0,2,746,3
0.251882673002,1.10689897648,0.172284859243,0.259256818102,0.422,0.45,1,1,2,747,3
0.0691291308999,0.0456148743502,1.13903373796,0.202903084404,0.448,0.45,2,2,2,748,3
1.07602103684,0.0136225405627,0.124218351844,0.116698147443,0.398,0.45,0,0,2,749,3
0.108678321593,0.150073323012,1.07446925397,0.0922538651862,0.36,0.45,3,2,-1,750,3
1.30083743193,0.0519056702176,0.115741698904,0.202583406133,0.427,0.45,0,0,2,751,3
0.106697035524,0.0757807233632,1.09938819174,0.207285531553,0.312,0.45,2,2,2,752,3
0.0665777811186,0.0773174672834,0.0234500493668,1.05913551976,0.407,0.45,3,3,2,753,3
0.0696463819404,0.0382478701689,1.31631599093,0.172259195937,0.42,0.45,2,2,2,754,3
0.0956139411279,1.00684785563,0.0282263057326,0.246121302537,0.37,0.45,1,1,2,755,3
0.115941932085,0.0498242565113,0.0381329314992,1.08267473247,0.384,0.45,3,3,2,756,3
0.146166080144,1.10244049016,0.0607251559563,0.150647281121,0.372,0.45,1,1,2,757,3
1.02496670524,0.0608841969729,0.0339465820213,0.16073993348,0.36,0.45,0,0,2,758,3
0.186031124517,1.38985298557,0.0437881321311,0.200452305373,0.403,0.45,1,1,2,759,3
0.076610236559,0.0636560664211,1.38848770244,0.258536680931,0.432,0.45,2,2,2,760,3
0.0977875936617,0.0708483696016,0.212332820657,1.04652080482,0.373,0.45,3,3,2,761,3
1.23202894411,0.182209500379,0.172227505673,0.304345685449,0.307,0.45,0,0,2,762,3
0.184010542425,0.0802797491907,1.12919494336,0.362917028119,0.323,0.45,2,2,2,763,3
1.15461563919,0.174576204477,0.0729263106151,0.315459378968,0.379,0.45,0,0,2,764,3
0.0918218209497,0.0263956929001,0.0545714066855,1.04636615733,0.398,0.45,3,3,2,765,3
0.0879579517507,1.36166782901,0.156640720638,0.198090508877,0.374,0.45,1,1,2,766,3
1.03960545346,0.0652411327705,0.225231974263,0.288415027573,0.381,0.45,0,0,2,767,3
0.222359198838,1.31595401992,0.0912206055402,0.173930606374,0.418,0.45,1,1,2,768,3
0.078531998904,0.0915791518229,0.0547012820309,1.08488250738,0.469,0.45,3,3,1,769,3
0.085997051934,0.020476314861,1.05022482606,0.0308874076674,0.366,0.45,2,2,2,770,3
0.266657491187,1.35676365478,0.119711928085,0.269904898014,0.338,0.45,1,1,2,771,3
1.34962987548,0.322919573091,0.153997814918,0.325299548066,0.297,0.45,0,0,2,772,3
0.155451297042,0.151593269971,1.20273744721,0.361306322616,0.346,0.45,2,2,2,773,3
0.163162530688,0.204821825596,0.0948206119588,1.04502443356,0.389,0.45,3,3,2,774,3
1.3198257369,0.391764933925,0.241049023508,0.213821887734,0.374,0.45,0,0,2,775,3
0.1371598182,0.180120295777,0.100722447118,1.12200601023,0.42,0.45,3,3,2,776,3
0.122274060791,0.106740491456,1.14853223867,0.220966054494,0.355,0.45,2,2,2,777,3
1.15348742059,0.158551405292,0.132143536318,0.279157531057,0.382,0.45,0,0,2,778,3
0.113371534317,1.02779177725,0.0680550519725,0.232031611977,0.451,0.45,1,1,1,779,3
0.0812812510219,0.208084190182,0.10976004482,1.00431062049,0.467,0.45,3,3,1,780,3
0.0989120556093,1.12158349901,0.0996338490491,0.275659823571,0.511,0.45,1,1,1,781,3
0.082264334716,0.105075457117,1.17383439949,0.307376931606,0.439,0.45,2,2,2,782,3
0.207821713889,1.08486465492,0.0569094703176,0.307274805068,0.417,0.45,1,1,2,783,3
0.101067080201,0.0350924704001,1.16477151934,0.352174421205,0.427,0.45,2,2,2,784,3
1.00924968636,0.0271472257388,0.0388647258386,0.313075165402,0.372,0.45,0,0,2,785,3
0.193095601978,0.174507503147,0.190748105657,1.03223623589,0.351,0.45,3,3,2,786,3
0.0584569874414,0.0592351647745,1.04345667697,0.271974624947,0.337,0.45,2,2,2,787,3
0.0847215627211,0.131477399821,0.0493879295148,1.03201653211,0.418,0.45,3,3,2,788,3
0.0638643348758,1.11078619014,0.033331981691,0.205681809943,0.301,0.45,0,1,-1,789,3
0.184086137996,0.248207833587,1.34754475792,0.388497386012,0.317,0.45,2,2,2,790,3
0.120646499523,1.21004785423,0.0400707271437,0.276125820508,0.319,0.45,1,1,2,791,3
0.0791128591945,0.0619520897852,0.572178387242,1.01052345351,0.439,0.45,3,3,2,792,3
0.133977843298,1.16035333478,0.190680133118,0.242922188738,0.45,0.45,1,1,1,793,3
1.21940123003,0.328650958653,0.120499493665,0.261891521545,0.403,0.45,0,0,2,794,3
0.155227433784,1.22731520987,0.19943162685,0.24620546478,0.431,0.45,1,1,2,795,3
0.0422065086484,0.0786876175361,1.01362241051,0.293666048445,0.386,0.45,2,2,2,796,3
1.21156045045,0.0179494348899,0.0949015110584,0.122469203846,0.433,0.45,0,0,2,797,3
0.0987130857317,0.0549607242672,0.0637194880232,1.01095819559,0.401,0.45,3,3,2,798,3
0.111039249469,0.095584705447,1.02161890545,0.347594287078,0.439,0.45,2,2,2,799,3
0.0958248218417,0.0780411324097,0.0503004981291,1.02446052053,0.488,0.45,3,3,1,800,3
1.30090068601,0.201979147,0.0527610097409,0.244375105866,0.419,0.45,0,0,2,801,3
0.15928954707,1.25286522095,0.0383278622279,0.141319398116,0.386,0.45,1,1,2,802,3
0.0520762618414,0.151270984567,0.0393556445731,0.174518790486,0.7,0.45,3,-1,0,804,3
1.10504566896,0.117238339047,0.0510558543558,0.202057035457,0.381,0.45,1,0,-1,804,3
1.53580924828,0.141235972835,0.0629670518602,0.193644943155,0.396,0.45,0,0,2,805,3
0.106587080413,0.0638038594788,1.20349728938,0.278826330631,0.409,0.45,2,2,2,806,3
0.102608537428,1.32806106541,0.0356267077183,0.277481820843,0.304,0.45,1,1,2,807,3
0.0952453186936,0.0464637622067,1.12241990764,0.288070868956,0.275,0.45,2,2,2,808,3
0.0970735948768,1.02827028233,0.0235523087359,0.234950627854,0.279,0.45,0,1,-1,809,3
0.0726612126951,0.0458190892332,1.11655222415,0.327820640348,0.33,0.45,3,2,-1,810,3
0.16711266698,0.0738375527712,1.0266437438,0.259513162979,0.307,0.45,2,2,2,811,3
0.110629469201,0.0664438511442,0.0494307925168,1.01940451101,0.36,0.45,3,3,2,812,3
1.28322284796,0.0871468498704,0.0326396397622,0.241321552883,0.321,0.45,0,0,2,813,3
0.0952809499944,0.0334947205186,1.14197123725,0.342476076465,0.292,0.45,2,2,2,814,3
0.152781276813,1.48528421053,0.0313526472255,0.378743708503,0.258,0.45,1,1,2,815,3
1.78432445899,0.0234507883418,0.0401221991498,0.255852058586,0.361,0.45,0,0,2,816,3
0.120870892052,1.49555538345,0.0895372087441,-0.0397324610408,0.455,0.45,1,1,1,817,3
0.0774721777904,0.0369333018049,1.06733902369,0.414958080726,0.389,0.45,3,2,-1,818,3
0.071740552466,1.12483741303,0.0329611541937,0.129447674743,0.356,0.45,1,1,2,819,3
2.16255672964,0.0389495028223,0.0627393001816,0.262421017047,0.385,0.45,0,0,2,820,3
0.0376515434648,0.0390681544605,1.38796936612,0.0889634769494,0.311,0.45,2,2,2,821,3
0.275545317093,0.13202776442,0.0390250621783,1.3860561589,0.251,0.45,3,3,2,822,3
0.1094677888,0.0927195133199,1.33273429805,0.306605936384,0.387,0.45,2,2,2,823,3
1.43610929551,0.0980748497874,0.0779391311188,0.231904694345,0.38,0.45,0,0,2,824,3
0.108566512279,0.0415680021275,0.0886917202822,1.06323651097,0.384,0.45,3,3,2,825,3
0.157501636584,1.07726172859,0.0446979459212,0.150633597403,0.299,0.45,1,1,2,826,3
0.114281336583,0.0266687184736,1.20325485186,0.230636271153,0.3,0.45,2,2,2,827,3
0.184030169378,2.12372628841,0.0736674497611,0.152698540374,0.387,0.45,1,1,2,828,3
0.0743101639949,0.00101679098875,0.0142869745889,1.11909184547,0.404,0.45,3,3,2,829,3
1.01494763286,0.0150013302842,0.0088330295301,0.169666406428,0.295,0.45,0,0,2,830,3
-0.0240750690321,1.16293023039,0.0180027693795,0.0423082162663,0.476,0.45,1,1,1,831,3
1.87625933485,0.0124375509029,0.0564066069,0.079254207644,0.519,0.45,0,0,1,832,3
0.0690395997032,0.0393209990026,0.0300487870725,1.15857693726,0.462,0.45,3,3,1,833,3
0.14132454886,0.0294885449615,1.11526277781,0.12853811643,0.346,0.45,2,2,2,834,3
0.0797310350008,0.0455359731924,0.0188478828457,1.59527535234,0.398,0.45,3,3,2,835,3
4.38452617067,0.0395179111089,0.0203077315729,-0.0252286037528,0.408,0.45,0,0,2,836,3
0.0881104336563,0.0366304768218,1.04915968978,0.103846524806,0.353,0.45,2,2,2,837,3
0.360701645761,2.52848778921,0.0301527062623,0.0621625728051,0.298,0.45,1,1,2,838,3
0.0807413352651,0.0164575900017,0.0161145878996,1.07452867711,0.283,0.45,3,3,2,839,3
0.0666436690276,1.41647421099,0.0216481542916,0.0629033852715,0.278,0.45,1,1,2,840,3
0.0720302857355,0.00825099339712,1.34304949637,0.101707402764,0.29,0.45,2,2,2,841,3
1.14754868305,0.0447182988468,0.0313359720408,0.0603058849442,0.337,0.45,0,0,2,842,3
0.0496073436638,1.27614005014,0.0425846263131,0.0343947412263,0.469,0.45,1,1,1,843,3
1.97897076264,0.0524164105985,0.0245520569963,-0.0424882140908,0.461,0.45,0,0,1,844,3
0.0927162176361,0.0355777921347,1.23489221363,0.0704616515285,0.379,0.45,3,2,-1,845,3
0.382779420707,0.210723259078,0.129657480917,1.05443731311,0.334,0.45,2,3,-1,846,3
1.40967960704,0.0614013798053,0.148365970441,0.0451826937975,0.333,0.45,0,0,2,847,3
0.123317549763,0.026442026045,1.17832470642,0.0521224033442,0.3,0.45,2,2,2,848,3
0.126156585613,0.0327896625839,0.150940853132,1.07935445562,0.3,0.45,3,3,2,849,3
0.0852236009652,0.0172395839221,1.12576198551,0.0828314388451,0.292,0.45,1,2,-1,850,3
0.115478471717,0.0599507403044,1.27937070208,0.211343779143,0.352,0.45,3,2,-1,851,3
1.03119070951,0.0623110290526,0.307410646747,0.13485354193,0.386,0.45,0,0,2,852,3
0.0908111498223,1.03222114627,0.155900900277,0.304804654812,0.504,0.45,1,1,1,853,3
0.0955390247254,0.0312552113418,1.19925055967,0.166695757512,0.445,0.45,2,2,2,854,3
0.160855387138,1.00224807775,0.0484816868042,0.119194361118,0.463,0.45,1,1,1,855,3
0.0737267183442,0.0390710557091,0.0370495167486,1.07369011878,0.448,0.45,3,3,2,856,3
0.103102487207,0.0840932001032,1.16913333435,0.0869728503575,0.406,0.45,2,2,2,857,3
1.59067220684,0.137609965401,0.103043655083,0.205042748552,0.337,0.45,0,0,2,858,3
0.0624669913273,0.0499226050227,0.0527288576952,1.22315670921,0.38,0.45,3,3,2,859,3
1.23062157946,0.0772483042946,0.0274458370041,0.170917580497,0.401,0.45,0,0,2,860,3
0.108402759556,0.0356179100687,1.10372340497,0.0850059790181,0.405,0.45,2,2,2,861,3
0.0928179784151,0.0304618159827,0.0574323909551,1.02368748445,0.395,0.45,3,3,2,862,3
0.0970194734105,1.03438530408,0.0290524317044,0.031817142962,0.466,0.45,1,1,1,863,3
0.120969917201,0.0502499965415,1.00505252071,0.160282700058,0.452,0.45,2,2,1,864,3
0.0896894914176,1.18164257346,0.0458361902362,0.212299988351,0.425,0.45,1,1,2,865,3
1.20498012323,0.167931589077,0.031990753017,0.339986180303,0.348,0.45,0,0,2,866,3
0.0797078401003,1.1209653116,0.0247450253463,0.153933628527,0.399,0.45,1,1,2,867,3
0.191271971742,0.137278193563,0.064527046667,1.12677924726,0.588,0.45,3,3,1,868,4
1.24773791055,0.120339811946,0.0661161929981,0.149114114261,0.542,0.45,0,0,1,869,4
0.0965533397394,0.0550062276972,1.08059114221,0.21160762996,0.531,0.45,2,2,1,870,4
0.10697720166,1.34760032353,0.073719594758,0.296020999292,0.452,0.45,1,1,1,871,4
1.46026499834,0.121224177728,0.0499029208323,0.233643344298,0.41,0.45,0,0,2,872,4
0.0880301698517,1.30374337024,0.0518163555844,0.261979525242,0.318,0.45,1,1,2,873,4
0.0749152084998,0.0438493197424,1.23271874519,0.275219785775,0.331,0.45,2,2,2,874,4
1.04735067419,0.0187738833996,0.0674559948486,0.0868988966276,0.348,0.45,0,0,2,875,4
0.0824210940626,0.0315174135003,0.647251251302,1.02228762347,0.425,0.45,3,3,2,876,4
0.178026705223,0.0329740086752,1.2987718042,0.0724932318342,0.419,0.45,2,2,2,877,4
0.162491410772,0.0466515822882,0.0567703124771,1.15221013615,0.401,0.45,3,3,2,878,4
1.08232133265,0.018416411212,0.0489086283018,0.0875517970958,0.383,0.45,1,0,-1,879,4
0.194794403913,0.0559861702711,0.0456958382168,1.29974638856,0.5,0.45,3,3,1,880,4
0.114903186247,0.120086267669,1.42256951842,0.138817286452,0.467,0.45,2,2,1,881,4
1.06236970024,0.0571276058829,0.0312589115967,0.112314404993,0.437,0.45,0,0,2,882,4
0.168686811672,1.00879760608,0.0541699582774,0.236067082125,0.454,0.45,1,1,1,883,4
1.4759633396,0.0550434567882,0.0593281620128,0.304890970863,0.408,0.45,0,0,2,884,4
0.104075134981,0.0395745723027,1.04013758425,0.29539372416,0.414,0.45,2,2,2,885,4
0.0969440569505,1.18008301152,0.0292584208922,0.190839723955,0.352,0.45,1,1,2,886,4
0.0930914111798,0.0315392399607,1.08572319256,0.353860161107,0.326,0.45,2,2,2,887,4
0.144224145457,0.14923253887,0.047023736691,1.03314213798,0.428,0.45,3,3,2,888,4
1.44502423039,0.0587284086177,0.484458779894,0.0336675435973,0.455,0.45,1,0,-1,889,4
0.0556590691674,0.0313212804861,1.12138739432,0.095096179609,0.451,0.45,3,2,-1,890,4
1.63646773688,0.144822632302,0.0557027574425,0.068159958228,0.369,0.45,0,0,2,891,4
0.0621341485776,0.0494187077967,0.156728585613,1.24783563255,0.409,0.45,3,3,2,892,4
0.0710050328981,1.28706597377,0.0611643586251,0.0402732788772,0.434,0.45,1,1,2,893,4
2.90792901486,0.0707112089034,0.0767122286098,0.0671931120924,0.406,0.45,0,0,2,894,4
0.0376961938166,0.152888335148,1.18442814928,0.224676151261,0.418,0.45,2,2,2,895,4
0.0529702186766,1.30053377626,0.031254085734,0.117641276265,0.354,0.45,1,1,2,896,4
0.0485965084501,0.0276888616521,1.49128330288,0.195350794639,0.277,0.45,2,2,2,897,4
0.0506236315816,1.15152166317,0.0468851058641,0.310512454615,0.154,0.45,0,1,-1,898,4
0.0580538758175,0.031649069915,0.0320972074932,1.20495924969,0.328,0.45,3,3,2,899,4
0.0666518261435,1.06265847491,0.031322811688,0.112754330061,0.416,0.45,0,1,-1,900,4
0.119262392489,1.43113319125,0.0390508224717,0.172096072573,0.398,0.45,1,1,2,901,4
0.104745520014,0.0246347949977,0.0267972467156,1.17636197025,0.442,0.45,3,3,2,902,4
0.104199670978,0.067406540666,1.28190005129,0.134473649812,0.466,0.45,2,2,1,903,4
0.15120401074,0.04916217023,0.0546895030361,1.01916755751,0.446,0.45,3,3,2,904,4
0.101003611351,0.0221373290904,1.09360097032,0.0641893405138,0.401,0.45,2,2,2,905,4
0.216628775432,1.03651267187,0.0546989798507,0.185210770657,0.492000000001,0.45,1,1,1,906,4
1.10452282343,0.0180605058085,0.0408293043039,0.151337802128,0.397000000001,0.45,0,0,2,907,4
0.0616866228604,1.28638610882,0.0455239001442,0.150704415235,0.329000000001,0.45,1,1,2,908,4
0.0554140403403,0.0182640368339,1.08108114403,0.128588274388,0.279000000001,0.45,2,2,2,909,4
1.38613231291,0.0492668721875,0.0312528055947,0.0918760146957,0.389000000001,0.45,0,0,2,910,4
0.0792933888788,1.06024835207,0.0376648840752,0.110765714421,0.324000000001,0.45,2,1,-1,911,4
0.081765150062,0.0160397561975,0.0337281342476,1.10337320668,0.466000000001,0.45,3,3,1,912,4
1.21973257396,0.0263545985669,0.0797793601142,0.058256174816,0.463000000001,0.45,0,0,1,913,4
0.0775318747395,0.0186399525568,0.0695008742648,1.19373134984,0.529000000001,0.45,3,3,1,914,4
0.351891886982,1.36763195093,0.0435887940643,0.0480110445342,0.500000000001,0.45,1,1,1,915,4
0.0780844338467,0.0196466896222,0.0406233681609,1.07263014069,0.513000000001,0.45,3,3,1,916,4
1.42130884683,0.0176059529336,0.0319162111177,0.0547555152536,0.486000000001,0.45,0,0,1,917,4
0.0880079372521,0.0265369244953,1.19081125917,0.102013489789,0.468000000001,0.45,2,2,1,918,4
0.0873526141102,1.0580914588,0.0312562104039,0.0862456067197,0.346000000001,0.45,1,1,2,919,4
2.23111750681,0.0213540287363,0.0312501052988,0.0653581328824,0.389000000001,0.45,0,0,2,920,4
0.0880685779139,1.19518705359,0.0347613977758,0.0752736819301,0.347000000001,0.45,1,1,2,921,4
0.0841120718309,0.0156273661415,1.40292910503,0.0593589832431,0.338000000001,0.45,2,2,2,922,4
0.181459524754,0.137954218194,0.104811003241,1.04175062905,0.323000000001,0.45,3,3,2,923,4
1.05391312683,0.040558783805,0.0830632645544,0.0716622601149,0.421000000001,0.45,1,0,-1,924,4
0.0666880189487,0.0348796601325,0.0405685404268,1.06742043755,0.425000000001,0.45,3,3,2,925,4
0.0717602142683,0.0554114650139,1.18563450576,0.133891393436,0.352000000001,0.45,2,2,2,926,4
1.49162878126,0.16277812118,0.0528526883448,0.25997346778,0.343000000001,0.45,0,0,2,927,4
0.0759715495582,0.0467745717283,0.033687609255,1.01126048106,0.412000000001,0.45,3,3,2,928,4
1.01268248443,0.02523981774,0.0241954925797,0.0888378314208,0.529000000001,0.45,0,0,1,929,4
0.0884542237962,0.0496940776211,1.02436536471,0.114707683662,0.394000000001,0.45,2,2,2,930,4
0.102282861492,1.30909900122,0.0312999489144,0.27537111988,0.365000000001,0.45,1,1,2,931,4
1.27298832992,0.0554659912963,0.0421995173487,0.16905910543,0.356000000001,0.45,0,0,2,932,4
0.825719277971,1.42095565081,0.0545035247432,0.151998285492,0.375000000001,0.45,1,1,2,933,4
0.066417190671,0.0767790373324,1.09247866733,0.251309953189,0.318000000001,0.45,2,2,2,934,4
0.072763718081,0.040317247152,0.0655212289087,1.02227829278,0.386000000001,0.45,3,3,2,935,4
0.111040375972,0.0281804313581,1.21211088959,0.101954435903,0.424000000001,0.45,2,2,2,936,4
1.24923161017,0.0243303819683,0.0258574975286,0.0896304529916,0.463000000001,0.45,0,0,1,937,4
0.0807214269587,0.029224030016,0.0277657747869,1.00219326795,0.576000000001,0.45,3,3,1,938,4
0.0865006613545,1.54700446748,0.0241188039314,0.0788552093726,0.467000000001,0.45,1,1,1,939,4
0.0960726123659,0.0261157847441,0.0254960316459,1.00390436766,0.633000000001,0.45,3,3,1,940,4
1.13138504977,0.0478726694678,0.0174782520446,0.127973412806,0.448000000001,0.45,0,0,2,941,4
0.0939421804748,0.0724577955317,1.27931208197,0.238641146138,0.497000000001,0.45,2,2,1,942,4
0.104143340791,1.30798523999,0.0468932605642,0.212405436466,0.435000000001,0.45,1,1,2,943,4
0.138404211099,0.0381545629282,1.08843023032,0.240616637954,0.533000000001,0.45,2,2,1,944,4
1.05876842887,0.0653052900359,0.046894483238,0.251853108513,0.454000000001,0.45,0,0,1,945,4
0.0930252073397,1.12721095112,0.06355624203,0.272341148325,0.417000000001,0.45,1,1,2,946,4
1.66883009361,0.0173914807274,0.0456297799339,0.20092998627,0.381000000001,0.45,0,0,2,947,4
0.092771279505,0.032822889141,0.033180954524,1.03606904909,0.488000000001,0.45,3,3,1,948,4
0.0990241117093,0.0419453262093,1.24906344392,0.0921222000779,0.398000000001,0.45,2,2,2,949,4
0.0956993133548,0.0652224691448,0.040951110651,1.1483477067,0.449000000001,0.45,3,3,2,950,4
1.05249580073,0.0371728392613,0.0679199258753,0.0773331722608,0.361000000001,0.45,1,0,-1,951,4
0.0627124420353,0.0486540765003,0.0614954465326,1.01741064548,0.378000000001,0.45,3,3,2,952,4
1.50366302691,0.0411192752559,0.122736918746,0.155141023485,0.386000000001,0.45,0,0,2,953,4
0.0639621470126,1.28766986936,0.0655982429965,0.116228849312,0.312000000001,0.45,1,1,2,954,4
0.0682194601225,0.0748321370284,1.22566393194,0.110944771674,0.318000000001,0.45,2,2,2,955,4
1.09479670965,0.158118039058,0.134210055838,0.105662873841,0.370000000001,0.45,0,0,2,956,4
0.063126946122,0.126702252372,1.27301901412,0.125811714122,0.415000000001,0.45,2,2,2,957,4
0.0602935853153,1.00590612602,0.0546885138397,0.0860264921677,0.367000000001,0.45,1,1,2,958,4
0.0724476560547,0.0234398134777,0.0346772384879,1.12667981342,0.363000000001,0.45,3,3,2,959,4
0.0663457866376,1.31727056672,0.0445329948147,0.109425206601,0.341000000001,0.45,1,1,2,960,4
1.22261716713,0.0553580273543,0.0522385031144,0.0918360499054,0.369000000001,0.45,0,0,2,961,4
0.0967515903642,0.0606141289665,0.0327193714334,1.00851503005,0.492000000001,0.45,3,3,1,962,4
0.103132090963,0.0768646424257,1.04154284175,0.133582119065,0.389000000001,0.45,2,2,2,963,4
0.0924896343382,0.0606290571793,0.0312539204974,1.05219608595,0.459000000001,0.45,3,3,1,964,4
0.101856711505,0.028758902498,1.40425827219,0.160502943155,0.399000000001,0.45,2,2,2,965,4
1.05558037286,0.0793528862,0.0312513895394,0.288794131294,0.423000000001,0.45,0,0,2,966,4
0.0832115711891,1.54707117556,0.060200957325,0.202010592189,0.347000000001,0.45,1,1,2,967,4
0.0809321141761,0.0234378669311,1.3702679739,0.199795116279,0.382000000001,0.45,2,2,2,968,4
1.189494278,0.114022386945,0.0771761268082,0.161566218832,0.422000000001,0.45,1,0,-1,969,4
0.081929454676,1.15925585535,0.0623494898124,0.173694879172,0.163000000001,0.45,0,1,-1,970,4
1.13507103003,0.0767263527201,0.0402003429704,0.28638238985,0.304000000001,0.45,3,0,-1,971,4
1.20578929905,0.23055548428,0.157243349418,0.20522034055,0.313000000001,0.45,0,0,2,972,4
0.0906754457053,0.0660383394104,1.0463515453,0.477783034809,0.382000000001,0.45,2,2,2,973,4
0.0963997318235,0.0847174369015,0.0347090146451,1.08684794919,0.435000000001,0.45,3,3,2,974,4
1.19327532733,0.0596654486597,0.0637402966055,0.0978164096159,0.382000000001,0.45,1,0,-1,975,4
0.0863891820655,0.0242279306696,0.0597714032178,1.2459251534,0.400000000001,0.45,3,3,2,976,4
0.0925812715086,1.36279026733,0.055813135007,0.104848845167,0.343000000001,0.45,1,1,2,977,4
1.20776679352,0.104336489563,0.0824255287074,0.153125678649,0.319000000001,0.45,0,0,2,978,4
0.102929706614,0.0777269123498,1.31679152961,0.244805521396,0.367000000001,0.45,2,2,2,979,4
0.10007260438,1.03021789685,0.0562076596979,0.17507712687,0.317000000001,0.45,1,1,2,980,4
0.0859276277974,0.105354363126,1.40879811855,0.278896760329,0.309000000001,0.45,2,2,2,981,4
1.01849039939,0.0647013692296,0.0699154904641,0.246278367212,0.266000000001,0.45,0,0,2,982,4
0.116224178127,1.16312472293,0.0580653736174,0.286004852687,0.280000000001,0.45,1,1,2,983,4
0.0959562760441,0.0367427029019,0.03550484417,1.01656646062,0.431000000001,0.45,3,3,2,984,4
0.129251471374,0.142357238895,1.28459565272,0.0909303910843,0.528000000001,0.45,2,2,1,985,4
0.122500986251,0.040065449897,0.0434780224107,1.29576658014,0.528000000001,0.45,3,3,1,986,4
1.04880857631,0.0475239004671,0.071018640458,0.109379879134,0.460000000001,0.45,0,0,1,987,4
0.0778597471737,0.0676113624323,1.02083129492,0.876253984495,0.507000000001,0.45,3,2,-1,988,4
0.0958870999369,1.07123985381,0.0572757342108,0.0757539123436,0.427000000001,0.45,1,1,2,989,4
1.11676854808,0.0557075100011,0.0359343432809,0.0771671907877,0.371000000001,0.45,0,0,2,990,4
0.0970623472063,1.06004320759,0.0529411001127,0.0892556400797,0.286000000001,0.45,2,1,-1,991,4
0.0832830854476,1.24167395466,0.0312522754843,0.0706320592033,0.278000000001,0.45,0,1,-1,992,4
0.0982724618434,1.03891553463,0.0481034029038,0.0939530743961,0.323000000001,0.45,1,1,2,993,4
0.0947197420345,0.0819513321374,1.45478218814,0.0695896363778,0.296000000001,0.45,2,2,2,994,4
0.104328287413,1.55136531175,0.043881363507,0.0744572045797,0.298000000001,0.45,1,1,2,995,4
0.113893380608,0.0970901742359,0.0931835518017,1.19415362083,0.364000000001,0.45,3,3,2,996,4
1.0427984181,0.14505762098,0.225582792844,0.128692084422,0.356000000001,0.45,0,0,2,997,4
0.0956732066678,0.0775287187766,1.19382201831,0.272666071085,0.505000000001,0.45,3,2,-1,998,4
0.0692852707659,1.13795502763,0.0491040938794,0.060738370786,0.469000000001,0.45,2,1,-1,999,4
0.0804717045446,0.0357925909388,1.15650963845,0.0555882072984,0.0660000000006,0.45,3,2,-1,1000,4
1.36665725924,0.29037781836,0.135179935388,0.21773001613,0.292000000001,0.45,2,0,-1,1001,4
1.09210790911,0.0492896321992,0.0390639044889,0.0519548470818,0.361000000001,0.45,1,0,-1,1002,4
1.16601145644,0.059272495729,0.0476037826894,0.0597102105966,0.328000000001,0.45,0,0,2,1003,4
0.103904358784,0.0692939151957,1.31377419547,0.0587401416672,0.310000000001,0.45,2,2,2,1004,4
0.0904174668845,1.12098140404,0.0402055427904,0.0536879257671,0.267000000001,0.45,0,1,-1,1005,4
0.107570619063,1.04042223765,0.056498443795,0.0825865445166,0.441000000001,0.45,1,1,2,1006,4
0.114220631318,0.0553722332328,0.0627586712166,0.351789785098,0.7,0.45,3,-1,0,1008,4
0.110676616558,1.24398468345,0.0591730028224,0.106773995857,0.378000000001,0.45,1,1,2,1008,4
0.108177032817,0.0468759158196,1.01894111442,0.101676602771,0.295000000001,0.45,2,2,2,1009,4
0.108955676485,0.0735922728214,0.0536346923562,1.11533532871,0.412000000001,0.45,3,3,2,1010,4
1.10217025033,0.0543481549478,0.0925518965781,0.0577494126693,0.385000000001,0.45,0,0,2,1011,4
0.0798107922788,0.0407525045855,0.0382778230111,0.69703320043,0.7,0.45,3,-1,0,1013,4
0.0740378708365,1.14075807067,0.0433925223211,0.0614856159236,0.417000000001,0.45,1,1,2,1013,4
2.99892209507,0.0272880641094,0.0590948739508,0.0914712775641,0.390000000001,0.45,0,0,2,1014,4
0.102386659992,0.0744834166054,1.28128456546,0.0907938719472,0.347000000001,0.45,2,2,2,1015,4
0.108179269981,1.51206274137,0.0312544291939,0.0695770959739,0.286000000001,0.45,1,1,2,1016,4
0.125122170381,0.0825768693241,1.27257778705,0.0726674673079,0.359000000001,0.45,2,2,2,1017,4
1.07612887147,0.0918745241624,0.0625004571487,0.0741851121633,0.386000000001,0.45,0,0,2,1018,4
0.0937439704405,0.0725280146513,0.0454940130643,1.08850637718,0.463000000001,0.45,3,3,1,1019,4
0.0203889667338,0.725884149029,2.13434609234,0.0849062984548,0.454000000001,0.45,2,2,1,1020,4
0.0704465594763,0.0839223295522,0.0659820170746,1.20615113793,0.550000000001,0.45,3,3,1,1021,4
1.71703170981,0.0673590679421,0.0511417459215,0.0305561905448,0.418000000001,0.45,0,0,2,1022,4
0.10334678567,0.0479336385904,1.15685047986,0.121614050365,0.355000000001,0.45,1,2,-1,1023,4
0.0865345793537,0.0312503932791,1.05062842723,0.0527854537007,0.350000000001,0.45,3,2,-1,1024,4
1.11754452428,0.0250328179653,0.0782085414057,0.0481781166126,0.460000000001,0.45,0,0,1,1025,4
0.144239136544,0.101739293242,1.16281188941,0.10499199111,0.356000000001,0.45,2,2,2,1026,4
1.16781564631,0.373879672347,0.304356535423,0.305786603624,0.436000000001,0.45,1,0,-1,1027,4
0.196007503063,1.01463590401,0.104399926664,0.142981820224,0.281000000001,0.45,2,1,-1,1028,4
2.47602245821,0.0558585434105,0.047469185558,0.157301386361,0.378000000001,0.45,0,0,2,1029,4
0.145087708535,0.0308488977667,1.3476217443,0.120361670077,0.278000000001,0.45,1,2,-1,1030,4
1.60784783597,0.0912058917359,0.0482753333558,0.0649497858325,0.427000000001,0.45,0,0,2,1031,4
0.0859801680996,0.041693626266,0.338661668637,1.09728484451,0.506000000001,0.45,3,3,1,1032,4
0.173704567372,1.47438207976,0.0234375361563,0.0400166140609,0.483000000001,0.45,1,1,1,1033,4
0.0928887658803,0.0165459662567,0.0501207427247,1.06865928122,0.428000000001,0.45,3,3,2,1034,4
0.108027071955,0.0470995989561,1.05807653552,0.0257922025547,0.479000000001,0.45,2,2,1,1035,4
0.0871637497217,0.0761230128802,0.0436426161561,1.09177914998,0.429000000001,0.45,3,3,2,1036,4
0.0846718846768,0.0389149587155,1.02200333734,0.0177386865315,0.409000000001,0.45,2,2,2,1037,4
1.74730057093,0.0575788896878,0.0359491278457,0.0744913117537,0.400000000001,0.45,0,0,2,1038,4
0.0877466461616,1.28619531902,0.0798203586619,0.105572023686,0.336000000001,0.45,1,1,2,1039,4
0.071744751699,0.0164172825648,1.03172365,0.0600813925989,0.333000000001,0.45,2,2,2,1040,4
0.0990109918051,1.37065766126,0.0574304624026,0.114198036077,0.413000000001,0.45,1,1,2,1041,4
1.01065497619,0.0274983805536,0.0329807463534,0.0443143135977,0.433000000001,0.45,0,0,2,1042,4
0.0496499673622,0.0444247558135,1.08564478788,0.780332327545,0.457000000001,0.45,3,2,-1,1043,4
0.078549788615,1.16572911908,0.0390651276462,0.0518465005633,0.349000000001,0.45,1,1,2,1044,4
0.0971399128525,0.0158008417897,0.0842148963124,1.02146875313,0.555000000001,0.45,3,3,1,1045,4
1.35453923123,0.0450644823166,0.0715248322775,0.0448504186776,0.398000000001,0.45,0,0,2,1046,4
0.082122367203,1.06856069583,0.0833103329721,0.150478526807,0.349000000001,0.45,2,1,-1,1047,4
0.0658659704337,0.0450407009185,0.0198245034354,1.17257003061,0.462000000001,0.45,3,3,1,1048,4
1.2558560417,0.0248363494034,0.0791219084916,0.045729092935,0.412000000001,0.45,1,0,-1,1049,4
0.0528179340812,0.0502209285047,1.27946520815,0.101677064162,0.444000000001,0.45,2,2,2,1050,4
1.3716537841,0.116989925589,0.0365787945477,0.0744359400894,0.404000000001,0.45,0,0,2,1051,4
0.114829300119,0.0711101537876,1.25844114383,0.08559576398,0.376000000001,0.45,2,2,2,1052,4
0.0972631233704,1.140576559,0.0274277326666,0.0699234974567,0.315000000001,0.45,1,1,2,1053,4
1.17347337509,0.0546001729581,0.0236516168864,0.0698638619272,0.346000000001,0.45,0,0,2,1054,4
0.208812574269,1.04320693329,0.0515720339617,0.0718893368046,0.424000000001,0.45,1,1,2,1055,4
0.0580515152653,0.0322108542692,0.0233570775549,1.04979776006,0.463000000001,0.45,3,3,1,1056,4
0.0553309145637,0.0313102314886,1.11265684109,0.0550596133136,0.338000000001,0.45,2,2,2,1057,4
0.0590635157192,0.026142062535,0.0379624902482,0.397456609223,0.7,0.45,3,-1,0,1059,4
1.0809032593,0.0347224369988,0.0517397295368,0.0874175369744,0.432000000001,0.45,0,0,2,1059,4
0.0289901849385,0.0420551951541,0.050458583753,1.11481857862,0.505000000001,0.45,3,3,1,1060,4
0.0337803559161,1.29741426423,0.0687463866979,0.0717069590233,0.499000000001,0.45,1,1,1,1061,4
2.843684004,0.0392562483756,0.0664121180838,0.0665427009165,0.442000000001,0.45,0,0,2,1062,4
0.0432543544513,0.0558105136314,1.06263819179,0.0867709232311,0.391000000001,0.45,2,2,2,1063,4
0.0471590841719,1.11104173786,0.0547146207139,0.0767076678875,0.330000000001,0.45,1,1,2,1064,4
0.0495729606759,0.0372323283858,1.25086774073,0.0662241857456,0.323000000001,0.45,2,2,2,1065,4
0.0470803186485,1.03742850186,0.0625237952472,0.062091711357,0.341000000001,0.45,0,1,-1,1066,4
0.0383999010869,1.05916589626,0.056104126367,0.0701626238923,0.397000000001,0.45,1,1,2,1067,4
0.0509872778628,0.0228073743776,0.031119421899,0.158500459123,0.7,0.45,3,-1,0,1069,4
0.0527496859346,0.0341644327325,1.13607423671,0.0836080207412,0.381000000001,0.45,2,2,2,1069,4
0.0414597530076,0.020137776998,0.00610493302719,1.03985299589,0.452000000001,0.45,3,3,1,1070,4
1.9057731063,0.0403585752016,0.0234718905934,0.0573765536618,0.415000000001,0.45,0,0,2,1071,4
0.0443914716593,0.0243923823461,0.034966196625,1.08056789331,0.474000000001,0.45,3,3,1,1072,4
0.0360410411951,1.07590447747,0.0270917381278,0.052440024715,0.415000000001,0.45,1,1,2,1073,4
1.15148189148,0.0277355479199,0.025378235934,0.0617294422603,0.387000000001,0.45,0,0,2,1074,4
0.0246336472779,0.0293440434937,1.1688963167,0.060963659311,0.341000000001,0.45,2,2,2,1075,4
1.79754673145,0.0369560686805,0.0546966145292,0.0515034125641,0.474000000001,0.45,0,0,1,1076,4
2.50027660707,0.0275855752938,0.967132011007,0.0399694912455,0.577000000001,0.45,1,0,-1,1077,4
0.0479520032418,0.0234438037574,1.10120630008,0.0374300379719,0.504000000001,0.45,2,2,1,1078,4
0.0617377758946,0.0266507602567,0.04364015572,1.41133032275,0.417000000001,0.45,3,3,2,1079,4
0.0503988124663,0.0158669017475,1.58641805846,-0.0944782654483,0.346000000001,0.45,2,2,2,1080,4
0.0716824459678,1.57265256942,0.0312647340549,0.0496696852464,0.406000000001,0.45,1,1,2,1081,4
0.0973247759709,0.0208833460549,0.0286724338415,1.22867211037,0.410000000001,0.45,3,3,2,1082,4
1.34857757169,0.0294523464544,0.0287116874253,0.0261170857201,0.415000000001,0.45,0,0,2,1083,4
0.0488041969306,0.025001101149,0.0258279916126,1.28927770332,0.453000000001,0.45,3,3,1,1084,4
1.18169791676,0.0234375,0.0390625,0.0851081967434,0.401000000001,0.45,0,0,2,1085,5
0.12990051524,0.0718345470745,1.19061575112,0.217085775477,0.411000000001,0.45,2,2,2,1086,5
0.131539682923,1.47475487638,0.0390625003048,0.0200781425851,0.349000000001,0.45,1,1,2,1087,5
0.133404818463,0.0159513691235,0.0226666347193,1.00083469125,0.386000000001,0.45,3,3,2,1088,5
0.300490063296,1.03705600661,0.0831212679514,0.077156666921,0.416000000001,0.45,1,1,2,1089,5
0.11726725856,0.015952547522,1.16355302909,0.0886945717768,0.304000000001,0.45,2,2,2,1090,5
0.103668536558,0.0177839702754,0.233206992125,1.13266237528,0.431000000001,0.45,3,3,2,1091,5
0.0933093677834,0.0256240473492,1.2606807888,0.0164649906746,0.332000000001,0.45,2,2,2,1092,5
1.99685334689,0.255565332956,0.0235001505455,0.134447827548,0.371000000001,0.45,0,0,2,1093,5
1.0918651475,0.0230318505415,0.0299691265326,0.111914127498,0.369000000001,0.45,1,0,-1,1094,5
1.69883393795,0.020436244799,0.0206707327755,0.000353258620825,0.441000000001,0.45,0,0,2,1095,5
0.0627386146219,0.0380041314901,0.0382444447435,1.05399613376,0.504000000001,0.45,3,3,1,1096,5
1.06294756785,0.0365634899537,0.0318590379573,0.0506515468994,0.568000000001,0.45,0,0,1,1097,5
0.0605284960024,0.0385776377508,0.0313294783223,1.09379800673,0.524000000001,0.45,3,3,1,1098,5
0.065097044701,1.14585883508,0.0312642906791,0.0454409262008,0.377000000001,0.45,1,1,2,1099,5
0.0660207272142,0.0234712443074,1.06569597659,0.0412833489891,0.327000000001,0.45,2,2,2,1100,5
0.0484401784528,1.05071614219,0.0379841343739,0.0728925454704,0.432000000001,0.45,1,1,2,1101,5
0.0663372750731,0.0467836857506,0.0601132731287,1.07882069954,0.383000000001,0.45,3,3,2,1102,5
0.0591607472362,0.0351690415464,1.44335459806,0.0705889426834,0.301000000001,0.45,2,2,2,1103,5
0.0580037653763,0.0595126558838,0.0391313040986,1.0903940751,0.412000000001,0.45,3,3,2,1104,5
2.55701627765,0.0859455000923,0.0390704743631,0.0153068666637,0.368000000001,0.45,0,0,2,1105,5
0.0414986275969,0.0571286821844,1.13288558792,0.0600309369755,0.289000000001,0.45,2,2,2,1106,5
0.118469335203,1.27448919026,0.0214216159841,0.178460202555,0.233000000001,0.45,0,1,-1,1107,5
0.0942282149348,0.065077274039,1.09976771854,0.196179318092,0.288000000001,0.45,1,2,-1,1108,5
2.03411961039,0.103862408404,0.0314343900873,0.104799015725,0.377000000001,0.45,0,0,2,1109,5
0.0793609930227,0.143936328865,1.15767768644,0.166494327015,0.323000000001,0.45,2,2,2,1110,5
0.0946304863358,0.0814502187516,1.05589144642,0.132548544072,0.348000000001,0.45,3,2,-1,1111,5
0.0855730304049,1.26503106381,0.0547137085417,0.0766833602194,0.298000000001,0.45,1,1,2,1112,5
0.0718316429429,0.0745370132205,1.09882783227,0.118268247683,0.272000000001,0.45,2,2,2,1113,5
1.04641634926,0.112744543612,0.194514570625,0.122938250856,0.377000000001,0.45,1,0,-1,1114,5
0.0849636638756,0.095327341994,0.0280681056207,0.130955151439,0.7,0.45,3,-1,0,1116,5
1.34467637749,0.113614567828,0.0454496665093,0.15037980696,0.328000000001,0.45,0,0,2,1116,5
0.0840221063456,0.0604115558373,1.08565763178,0.190209927992,0.324000000001,0.45,3,2,-1,1117,5
0.09980790352,0.231412652559,1.53508596063,0.225326574096,0.448000000001,0.45,2,2,2,1118,5
1.66222658639,0.109762278242,0.0334714795752,0.102862389125,0.398000000001,0.45,0,0,2,1119,5
0.0457796647114,0.0597059400303,1.41136040492,0.14890004853,0.329000000001,0.45,1,2,-1,1120,5
4.26756913638,0.0220248893729,0.0511733892632,0.083718136393,0.419000000001,0.45,0,0,2,1121,5
0.116854262518,1.1082792183,0.106185151818,0.0900378048876,0.458000000001,0.45,1,1,1,1122,5
0.0824633466994,0.0492627758956,1.19422392234,0.0832288884581,0.385000000001,0.45,2,2,2,1123,5
0.081648939165,0.0826733067126,0.0486679316665,1.13261929904,0.412000000001,0.45,3,3,2,1124,5
0.0810691652833,1.11546080544,0.119173973567,0.136431278325,0.346000000001,0.45,1,1,2,1125,5
0.119128280919,0.0645369731716,1.24516319232,0.258358139984,0.395000000001,0.45,3,2,-1,1126,5
0.244899325593,1.09017470914,0.30950454427,0.261317531959,0.507000000001,0.45,2,1,-1,1127,5
1.46241666231,0.135573801142,0.0558051091821,0.524535808521,0.446000000001,0.45,0,0,2,1128,5
0.29775838017,0.0838641938223,0.111425740208,1.33262982987,0.418000000001,0.45,3,3,2,1129,5
0.208374726329,1.06070844485,0.0772915439806,0.184801264678,0.383000000001,0.45,0,1,-1,1130,5
0.220440839398,0.0970492234671,1.1234382297,0.427761417455,0.364000000001,0.45,2,2,2,1131,5
0.208560590312,1.23120522487,0.039065029446,0.284528768053,0.342000000001,0.45,1,1,2,1132,5
1.04588218028,0.0625054237243,0.0801962141766,0.243078534651,0.385000000001,0.45,0,0,2,1133,5
0.432484209352,1.00767551499,0.106435007117,0.230974609618,0.364000000001,0.45,1,1,2,1134,5
0.16562079741,0.103766643366,1.00061434036,0.292464923174,0.354000000001,0.45,2,2,2,1135,5
0.207772456981,0.19695302844,0.104032701984,1.11488131884,0.325000000001,0.45,3,3,2,1136,5
0.197835370453,1.194892285,0.117211111812,0.287719995933,0.343000000001,0.45,1,1,2,1137,5
0.152433539662,0.0869037787701,0.0821318991733,1.11776500617,0.354000000001,0.45,3,3,2,1138,5
0.133434093353,0.245243777039,1.15194611149,0.258858641591,0.410000000001,0.45,2,2,2,1139,5
0.0920163415623,1.13430119676,0.0312551514535,0.244919994423,0.373000000001,0.45,1,1,2,1140,5
1.09191921523,0.305517537388,0.0896559132343,0.429592673478,0.339000000001,0.45,0,0,2,1141,5
0.150009619191,0.110625398086,1.32276101829,0.343095635159,0.394000000001,0.45,2,2,2,1142,5
1.31928903353,0.0648947647302,0.0558414209133,0.0554491531417,0.383000000001,0.45,0,0,2,1143,5
0.157847989795,0.186034101108,0.136561766733,1.24583713938,0.376000000001,0.45,3,3,2,1144,5
1.25652752158,0.0926753411132,0.0466390634293,0.0515217558611,0.378000000001,0.45,0,0,2,1145,5
0.123330801715,0.0844836516173,1.35418361706,0.165990414119,0.398000000001,0.45,2,2,2,1146,5
0.108811148887,0.0575229063232,0.0468772800089,1.26105647599,0.458000000001,0.45,3,3,1,1147,5
0.11003087585,1.26596979481,0.0468752219325,0.0548749271517,0.392000000001,0.45,1,1,2,1148,5
0.108552567372,0.070446193643,0.0468750286848,1.30457414564,0.349000000001,0.45,3,3,2,1149,5
0.0980231664794,0.0703232568635,1.14498466536,0.0807126129146,0.369000000001,0.45,2,2,2,1150,5
0.101741357894,1.18732785301,0.0313161533392,0.0664615310186,0.333000000001,0.45,1,1,2,1151,5
0.0826126210232,0.047966046449,1.08215283624,-0.00556547434471,0.346000000001,0.45,2,2,2,1152,5
1.19590829074,0.165331821481,0.0937105858559,0.0708382233796,0.379000000001,0.45,0,0,2,1153,5
0.242670222877,1.1323241454,0.0702718976661,0.0841130734887,0.467000000001,0.45,1,1,1,1154,5
1.45654986217,0.0608363355838,0.0341797141675,0.0613910953409,0.434000000001,0.45,0,0,2,1155,5
0.0532575506146,0.0692669581128,0.0612876663781,1.17558867116,0.434000000001,0.45,3,3,2,1156,5
1.14893146823,0.139286055833,0.0302025191085,0.0499927822429,0.403000000001,0.45,0,0,2,1157,5
1.08680896454,0.0665666772344,0.031151026723,0.077001614016,0.449000000001,0.45,1,0,-1,1158,5
0.0672629749231,0.0703348763017,1.23509290427,0.0382158803775,0.399000000001,0.45,2,2,2,1159,5
0.066155738592,0.0655386354199,0.105810158665,1.09968001949,0.384000000001,0.45,3,3,2,1160,5
0.0672541571944,1.2107879459,0.0331907879769,0.0762689721556,0.427000000001,0.45,1,1,2,1161,5
0.063956955791,0.0657299568652,0.0540454360336,1.20386588603,0.438000000001,0.45,3,3,2,1162,5
0.0626226189877,0.0483976978029,1.124261863,0.0312708943432,0.372000000001,0.45,2,2,2,1163,5
1.01223046319,0.0470242642263,0.0343273990137,0.0433155689614,0.417000000001,0.45,0,0,2,1164,5
0.12716346886,0.0663947392679,1.09203007593,0.0615546865654,0.349000000001,0.45,2,2,2,1165,5
0.117505191185,1.07707366481,0.0313811571662,0.0508018738301,0.367000000001,0.45,1,1,2,1166,5
1.17941572331,0.0561539889752,0.0299732382371,0.0449500547579,0.399000000001,0.45,0,0,2,1167,5
0.0576278437107,0.0475639230977,0.0311200355083,1.03070432484,0.431000000001,0.45,3,3,2,1168,5
1.05631512463,0.0840295224528,0.0312357773815,0.0975001210606,0.444000000001,0.45,0,0,2,1169,5
0.100884276954,1.08011280633,0.0304944591659,0.0879485184579,0.516000000001,0.45,1,1,1,1170,5
0.110271283581,0.0567372199118,0.0438795833677,1.0152475645,0.543000000001,0.45,3,3,1,1171,5
